practiceimage,PracticeimageCorrAns,congruent,practiceSentence,practiceSentenceCompQ,compRespL,compRespR,compRespCorr,block,image,sentence,ambiguous,critical,Incongruent,Single,imageCorrAns,incongruentambiguous,criticalSentenceCode,compQ,RepeatFlankerIfNeeded.thisRepN,RepeatFlankerIfNeeded.thisTrialN,RepeatFlankerIfNeeded.thisN,RepeatFlankerIfNeeded.thisIndex,practiceFlankerLoop.thisRepN,practiceFlankerLoop.thisTrialN,practiceFlankerLoop.thisN,practiceFlankerLoop.thisIndex,RepeatPracticeSentencesIfNeeded.thisRepN,RepeatPracticeSentencesIfNeeded.thisTrialN,RepeatPracticeSentencesIfNeeded.thisN,RepeatPracticeSentencesIfNeeded.thisIndex,practiceSentenceLoop.thisRepN,practiceSentenceLoop.thisTrialN,practiceSentenceLoop.thisN,practiceSentenceLoop.thisIndex,MixedPractice.thisRepN,MixedPractice.thisTrialN,MixedPractice.thisN,MixedPractice.thisIndex,MixedPracticeTrial.thisRepN,MixedPracticeTrial.thisTrialN,MixedPracticeTrial.thisN,MixedPracticeTrial.thisIndex,blocks.thisRepN,blocks.thisTrialN,blocks.thisN,blocks.thisIndex,trials.thisRepN,trials.thisTrialN,trials.thisN,trials.thisIndex,keyResponseIntroText.keys,keyResponseIntroText.rt,keyResponseIntro2Text.keys,keyResponseIntro2Text.rt,FlankerInstructions_keyresponse.keys,FlankerInstructions_keyresponse.rt,FlankerInstructions2_keyresponse.keys,FlankerInstructions2_keyresponse.rt,PracticeFlankerResponse.keys,PracticeFlankerResponse.corr,PracticeFlankerResponse.rt,SPRInstructions_keyresponse.keys,SPRInstructions_keyresponse.rt,key_resp_5.keys,key_resp_5.rt,SPRinstructions2_keyresponse.keys,SPRinstructions2_keyresponse.rt,IRI_0,IRI_FL_0,space_0,IRI_1,IRI_FL_1,space_1,IRI_2,IRI_FL_2,space_2,IRI_3,IRI_FL_3,space_3,IRI_4,IRI_FL_4,space_4,IRI_5,IRI_FL_5,space_5,IRI_6,IRI_FL_6,space_6,IRI_7,IRI_FL_7,space_7,IRI_8,IRI_FL_8,space_8,IRI_9,IRI_FL_9,space_9,IRI_10,IRI_FL_10,space_10,IRI_11,IRI_FL_11,space_11,IRI_12,IRI_FL_12,space_12,key_resp_practiceCompQ.keys,key_resp_practiceCompQ.corr,key_resp_practiceCompQ.rt,IRI_13,IRI_FL_13,space_13,combinedInstructions_keyresponse.keys,combinedInstructions_keyresponse.rt,keyResponseInstructionsMixed.keys,keyResponseInstructionsMixed.rt,flankerkeyresponse.keys,flankerkeyresponse.corr,flankerkeyresponse.rt,CompQkeyresponse.keys,CompQkeyresponse.corr,CompQkeyresponse.rt,key_resp_3.keys,keyResponsePreStart.keys,keyResponsePreStart.rt,key_resp_2.keys,key_resp_4.keys,IRI_14,IRI_FL_14,space_14,IRI_15,IRI_FL_15,space_15,IRI_16,IRI_FL_16,space_16,IRI_17,IRI_FL_17,space_17,IRI_18,IRI_FL_18,space_18,IRI_19,IRI_FL_19,space_19,IRI_20,IRI_FL_20,space_20,key_resp_4.rt,rest_keyresponse.keys,rest_keyresponse.rt,participant,session,group,level,date,expName,frameRate,
,,,,,,,,,,,,,,,,,,,,,,,,,,,,,,,,,,,,,,,,,,,,,,,,,,,space,15.692928261996713,,,,,,,,,,,,,,,,,,,,,,,,,,,,,,,,,,,,,,,,,,,,,,,,,,,,,,,,,,,,,,,,,,,,,,,,,,,,,,,,,,,,,,,,,,,,,,,,,,,,10,001,1,2,2018_Oct_04_1542,Dissertation,59.88922004428605,
,,,,,,,,,,,,,,,,,,,,,,,,,,,,,,,,,,,,,,,,,,,,,,,,,,,,,space,19.003048869024497,,,,,,,,,,,,,,,,,,,,,,,,,,,,,,,,,,,,,,,,,,,,,,,,,,,,,,,,,,,,,,,,,,,,,,,,,,,,,,,,,,,,,,,,,,,,,,,,,,10,001,1,2,2018_Oct_04_1542,Dissertation,59.88922004428605,
,,,,,,,,,,,,,,,,,,,,,,,,,,,,,,,,,,,,,,,,,,,,,,,,,,,,,,,space,20.233057328034192,,,,,,,,,,,,,,,,,,,,,,,,,,,,,,,,,,,,,,,,,,,,,,,,,,,,,,,,,,,,,,,,,,,,,,,,,,,,,,,,,,,,,,,,,,,,,,,,10,001,1,2,2018_Oct_04_1542,Dissertation,59.88922004428605,
single_right,j,0,It's no problem if you need to guess the answer from time to time,It's important that you don't guess.,Verdadero,Falso,j,practice,,,,,,,,,,,0,0,0,0,0,0,0,5,,,,,,,,,,,,,,,,,,,,,,,,,,,,,,,space,8.440522190008778,j,1,1.1216208019759506,,,,,,,,,,,,,,,,,,,,,,,,,,,,,,,,,,,,,,,,,,,,,,,,,,,,,,,,,,,,,,,,,,,,,,,,,,,,,,,,,,,,,,,,,,,10,001,1,2,2018_Oct_04_1542,Dissertation,59.88922004428605,
congruent_left,f,1,This is an example of the sentences you will see throughout the study,You just saw an example of a stimulus.,Verdadero,Falso,f,practice,,,,,,,,,,,0,0,0,0,0,1,1,0,,,,,,,,,,,,,,,,,,,,,,,,,,,,,,,,,f,1,0.8396741530159488,,,,,,,,,,,,,,,,,,,,,,,,,,,,,,,,,,,,,,,,,,,,,,,,,,,,,,,,,,,,,,,,,,,,,,,,,,,,,,,,,,,,,,,,,,,10,001,1,2,2018_Oct_04_1542,Dissertation,59.88922004428605,
incongruent_left,f,0,Sometimes they'll be short,All sentences are the same.,Verdadero,Falso,j,practice,,,,,,,,,,,0,0,0,0,0,2,2,2,,,,,,,,,,,,,,,,,,,,,,,,,,,,,,,,,f,1,1.0573722979752347,,,,,,,,,,,,,,,,,,,,,,,,,,,,,,,,,,,,,,,,,,,,,,,,,,,,,,,,,,,,,,,,,,,,,,,,,,,,,,,,,,,,,,,,,,,10,001,1,2,2018_Oct_04_1542,Dissertation,59.88922004428605,
congruent_right,j,1,Sometimes the sentences will be longer,Some sentences are long.,Verdadero,Falso,f,practice,,,,,,,,,,,0,0,0,0,0,3,3,1,,,,,,,,,,,,,,,,,,,,,,,,,,,,,,,,,j,1,0.7564354750211351,,,,,,,,,,,,,,,,,,,,,,,,,,,,,,,,,,,,,,,,,,,,,,,,,,,,,,,,,,,,,,,,,,,,,,,,,,,,,,,,,,,,,,,,,,,10,001,1,2,2018_Oct_04_1542,Dissertation,59.88922004428605,
single_left,f,0,The questions that follow each sentence sometimes will be obvious and sometimes more difficult ,The difficulty of each sentence varies.,Verdadero,Falso,f,practice,,,,,,,,,,,0,0,0,0,0,4,4,4,,,,,,,,,,,,,,,,,,,,,,,,,,,,,,,,,f,1,0.6689492849982344,,,,,,,,,,,,,,,,,,,,,,,,,,,,,,,,,,,,,,,,,,,,,,,,,,,,,,,,,,,,,,,,,,,,,,,,,,,,,,,,,,,,,,,,,,,10,001,1,2,2018_Oct_04_1542,Dissertation,59.88922004428605,
incongruent_right,j,0,Your task is to read the sentence in the most natural way possible,You don't have to pay attention to the sentence.,Verdadero,Falso,j,practice,,,,,,,,,,,0,0,0,0,0,5,5,3,,,,,,,,,,,,,,,,,,,,,,,,,,,,,,,,,j,1,0.5899468599818647,,,,,,,,,,,,,,,,,,,,,,,,,,,,,,,,,,,,,,,,,,,,,,,,,,,,,,,,,,,,,,,,,,,,,,,,,,,,,,,,,,,,,,,,,,,10,001,1,2,2018_Oct_04_1542,Dissertation,59.88922004428605,
incongruent_left,f,0,Sometimes they'll be short,All sentences are the same.,Verdadero,Falso,j,practice,,,,,,,,,,,0,0,0,0,1,0,6,2,,,,,,,,,,,,,,,,,,,,,,,,,,,,,,,,,f,1,0.5385126119945198,,,,,,,,,,,,,,,,,,,,,,,,,,,,,,,,,,,,,,,,,,,,,,,,,,,,,,,,,,,,,,,,,,,,,,,,,,,,,,,,,,,,,,,,,,,10,001,1,2,2018_Oct_04_1542,Dissertation,59.88922004428605,
incongruent_right,j,0,Your task is to read the sentence in the most natural way possible,You don't have to pay attention to the sentence.,Verdadero,Falso,j,practice,,,,,,,,,,,0,0,0,0,1,1,7,3,,,,,,,,,,,,,,,,,,,,,,,,,,,,,,,,,j,1,0.5566144370241091,,,,,,,,,,,,,,,,,,,,,,,,,,,,,,,,,,,,,,,,,,,,,,,,,,,,,,,,,,,,,,,,,,,,,,,,,,,,,,,,,,,,,,,,,,,10,001,1,2,2018_Oct_04_1542,Dissertation,59.88922004428605,
congruent_left,f,1,This is an example of the sentences you will see throughout the study,You just saw an example of a stimulus.,Verdadero,Falso,f,practice,,,,,,,,,,,0,0,0,0,1,2,8,0,,,,,,,,,,,,,,,,,,,,,,,,,,,,,,,,,f,1,0.5565795949660242,,,,,,,,,,,,,,,,,,,,,,,,,,,,,,,,,,,,,,,,,,,,,,,,,,,,,,,,,,,,,,,,,,,,,,,,,,,,,,,,,,,,,,,,,,,10,001,1,2,2018_Oct_04_1542,Dissertation,59.88922004428605,
congruent_right,j,1,Sometimes the sentences will be longer,Some sentences are long.,Verdadero,Falso,f,practice,,,,,,,,,,,0,0,0,0,1,3,9,1,,,,,,,,,,,,,,,,,,,,,,,,,,,,,,,,,j,1,0.5185150199686177,,,,,,,,,,,,,,,,,,,,,,,,,,,,,,,,,,,,,,,,,,,,,,,,,,,,,,,,,,,,,,,,,,,,,,,,,,,,,,,,,,,,,,,,,,,10,001,1,2,2018_Oct_04_1542,Dissertation,59.88922004428605,
single_right,j,0,It's no problem if you need to guess the answer from time to time,It's important that you don't guess.,Verdadero,Falso,j,practice,,,,,,,,,,,0,0,0,0,1,4,10,5,,,,,,,,,,,,,,,,,,,,,,,,,,,,,,,,,j,1,0.5860854320344515,,,,,,,,,,,,,,,,,,,,,,,,,,,,,,,,,,,,,,,,,,,,,,,,,,,,,,,,,,,,,,,,,,,,,,,,,,,,,,,,,,,,,,,,,,,10,001,1,2,2018_Oct_04_1542,Dissertation,59.88922004428605,
single_left,f,0,The questions that follow each sentence sometimes will be obvious and sometimes more difficult ,The difficulty of each sentence varies.,Verdadero,Falso,f,practice,,,,,,,,,,,0,0,0,0,1,5,11,4,,,,,,,,,,,,,,,,,,,,,,,,,,,,,,,,,f,1,0.4070043579558842,,,,,,,,,,,,,,,,,,,,,,,,,,,,,,,,,,,,,,,,,,,,,,,,,,,,,,,,,,,,,,,,,,,,,,,,,,,,,,,,,,,,,,,,,,,10,001,1,2,2018_Oct_04_1542,Dissertation,59.88922004428605,
congruent_left,f,1,This is an example of the sentences you will see throughout the study,You just saw an example of a stimulus.,Verdadero,Falso,f,practice,,,,,,,,,,,0,0,0,0,2,0,12,0,,,,,,,,,,,,,,,,,,,,,,,,,,,,,,,,,f,1,0.5057244999916293,,,,,,,,,,,,,,,,,,,,,,,,,,,,,,,,,,,,,,,,,,,,,,,,,,,,,,,,,,,,,,,,,,,,,,,,,,,,,,,,,,,,,,,,,,,10,001,1,2,2018_Oct_04_1542,Dissertation,59.88922004428605,
single_right,j,0,It's no problem if you need to guess the answer from time to time,It's important that you don't guess.,Verdadero,Falso,j,practice,,,,,,,,,,,0,0,0,0,2,1,13,5,,,,,,,,,,,,,,,,,,,,,,,,,,,,,,,,,j,1,0.4879412149894051,,,,,,,,,,,,,,,,,,,,,,,,,,,,,,,,,,,,,,,,,,,,,,,,,,,,,,,,,,,,,,,,,,,,,,,,,,,,,,,,,,,,,,,,,,,10,001,1,2,2018_Oct_04_1542,Dissertation,59.88922004428605,
incongruent_left,f,0,Sometimes they'll be short,All sentences are the same.,Verdadero,Falso,j,practice,,,,,,,,,,,0,0,0,0,2,2,14,2,,,,,,,,,,,,,,,,,,,,,,,,,,,,,,,,,f,1,0.5225485769915394,,,,,,,,,,,,,,,,,,,,,,,,,,,,,,,,,,,,,,,,,,,,,,,,,,,,,,,,,,,,,,,,,,,,,,,,,,,,,,,,,,,,,,,,,,,10,001,1,2,2018_Oct_04_1542,Dissertation,59.88922004428605,
congruent_right,j,1,Sometimes the sentences will be longer,Some sentences are long.,Verdadero,Falso,f,practice,,,,,,,,,,,0,0,0,0,2,3,15,1,,,,,,,,,,,,,,,,,,,,,,,,,,,,,,,,,j,1,0.43485652696108446,,,,,,,,,,,,,,,,,,,,,,,,,,,,,,,,,,,,,,,,,,,,,,,,,,,,,,,,,,,,,,,,,,,,,,,,,,,,,,,,,,,,,,,,,,,10,001,1,2,2018_Oct_04_1542,Dissertation,59.88922004428605,
single_left,f,0,The questions that follow each sentence sometimes will be obvious and sometimes more difficult ,The difficulty of each sentence varies.,Verdadero,Falso,f,practice,,,,,,,,,,,0,0,0,0,2,4,16,4,,,,,,,,,,,,,,,,,,,,,,,,,,,,,,,,,f,1,0.4064685379853472,,,,,,,,,,,,,,,,,,,,,,,,,,,,,,,,,,,,,,,,,,,,,,,,,,,,,,,,,,,,,,,,,,,,,,,,,,,,,,,,,,,,,,,,,,,10,001,1,2,2018_Oct_04_1542,Dissertation,59.88922004428605,
incongruent_right,j,0,Your task is to read the sentence in the most natural way possible,You don't have to pay attention to the sentence.,Verdadero,Falso,j,practice,,,,,,,,,,,0,0,0,0,2,5,17,3,,,,,,,,,,,,,,,,,,,,,,,,,,,,,,,,,j,1,0.43524307798361406,,,,,,,,,,,,,,,,,,,,,,,,,,,,,,,,,,,,,,,,,,,,,,,,,,,,,,,,,,,,,,,,,,,,,,,,,,,,,,,,,,,,,,,,,,,10,001,1,2,2018_Oct_04_1542,Dissertation,59.88922004428605,
single_left,f,0,The questions that follow each sentence sometimes will be obvious and sometimes more difficult ,The difficulty of each sentence varies.,Verdadero,Falso,f,practice,,,,,,,,,,,0,0,0,0,3,0,18,4,,,,,,,,,,,,,,,,,,,,,,,,,,,,,,,,,f,1,0.4055463649565354,,,,,,,,,,,,,,,,,,,,,,,,,,,,,,,,,,,,,,,,,,,,,,,,,,,,,,,,,,,,,,,,,,,,,,,,,,,,,,,,,,,,,,,,,,,10,001,1,2,2018_Oct_04_1542,Dissertation,59.88922004428605,
single_right,j,0,It's no problem if you need to guess the answer from time to time,It's important that you don't guess.,Verdadero,Falso,j,practice,,,,,,,,,,,0,0,0,0,3,1,19,5,,,,,,,,,,,,,,,,,,,,,,,,,,,,,,,,,j,1,0.3564712799852714,,,,,,,,,,,,,,,,,,,,,,,,,,,,,,,,,,,,,,,,,,,,,,,,,,,,,,,,,,,,,,,,,,,,,,,,,,,,,,,,,,,,,,,,,,,10,001,1,2,2018_Oct_04_1542,Dissertation,59.88922004428605,
incongruent_left,f,0,Sometimes they'll be short,All sentences are the same.,Verdadero,Falso,j,practice,,,,,,,,,,,0,0,0,0,3,2,20,2,,,,,,,,,,,,,,,,,,,,,,,,,,,,,,,,,f,1,0.4376262699952349,,,,,,,,,,,,,,,,,,,,,,,,,,,,,,,,,,,,,,,,,,,,,,,,,,,,,,,,,,,,,,,,,,,,,,,,,,,,,,,,,,,,,,,,,,,10,001,1,2,2018_Oct_04_1542,Dissertation,59.88922004428605,
congruent_left,f,1,This is an example of the sentences you will see throughout the study,You just saw an example of a stimulus.,Verdadero,Falso,f,practice,,,,,,,,,,,0,0,0,0,3,3,21,0,,,,,,,,,,,,,,,,,,,,,,,,,,,,,,,,,f,1,0.5363713969709352,,,,,,,,,,,,,,,,,,,,,,,,,,,,,,,,,,,,,,,,,,,,,,,,,,,,,,,,,,,,,,,,,,,,,,,,,,,,,,,,,,,,,,,,,,,10,001,1,2,2018_Oct_04_1542,Dissertation,59.88922004428605,
incongruent_right,j,0,Your task is to read the sentence in the most natural way possible,You don't have to pay attention to the sentence.,Verdadero,Falso,j,practice,,,,,,,,,,,0,0,0,0,3,4,22,3,,,,,,,,,,,,,,,,,,,,,,,,,,,,,,,,,j,1,0.7398984570172615,,,,,,,,,,,,,,,,,,,,,,,,,,,,,,,,,,,,,,,,,,,,,,,,,,,,,,,,,,,,,,,,,,,,,,,,,,,,,,,,,,,,,,,,,,,10,001,1,2,2018_Oct_04_1542,Dissertation,59.88922004428605,
congruent_right,j,1,Sometimes the sentences will be longer,Some sentences are long.,Verdadero,Falso,f,practice,,,,,,,,,,,0,0,0,0,3,5,23,1,,,,,,,,,,,,,,,,,,,,,,,,,,,,,,,,,j,1,0.4226301549933851,,,,,,,,,,,,,,,,,,,,,,,,,,,,,,,,,,,,,,,,,,,,,,,,,,,,,,,,,,,,,,,,,,,,,,,,,,,,,,,,,,,,,,,,,,,10,001,1,2,2018_Oct_04_1542,Dissertation,59.88922004428605,
,,,,,,,,,,,,,,,,,,,0,0,0,0,,,,,,,,,,,,,,,,,,,,,,,,,,,,,,,,,,,,,,,,,,,,,,,,,,,,,,,,,,,,,,,,,,,,,,,,,,,,,,,,,,,,,,,,,,,,,,,,,,,,,,,,,,,,,,,,,,,,,,,,,,,,,,,,,,10,001,1,2,2018_Oct_04_1542,Dissertation,59.88922004428605,
,,,,,,,,,,,,,,,,,,,,,,,,,,,,,,,,,,,,,,,,,,,,,,,,,,,,,,,,,,,,,,space,23.601326834992506,,,,,,,,,,,,,,,,,,,,,,,,,,,,,,,,,,,,,,,,,,,,,,,,,,,,,,,,,,,,,,,,,,,,,,,,,,,,,,,,,,,,,,,,,10,001,1,2,2018_Oct_04_1542,Dissertation,59.88922004428605,
,,,,,,,,,,,,,,,,,,,,,,,,,,,,,,,,,,,,,,,,,,,,,,,,,,,,,,,,,,,,,,,,space,13.624768114008475,,,,,,,,,,,,,,,,,,,,,,,,,,,,,,,,,,,,,,,,,,,,,,,,,,,,,,,,,,,,,,,,,,,,,,,,,,,,,,,,,,,,,,,10,001,1,2,2018_Oct_04_1542,Dissertation,59.88922004428605,
congruent_left,f,1,This is an example of the sentences you will see throughout the study,You just saw an example of a stimulus.,Verdadero,Falso,f,practice,,,,,,,,,,,,,,,,,,,0,0,0,0,0,0,0,0,,,,,,,,,,,,,,,,,,,,,,,,,,,,,,,,space,3.0091122700250708,1.377766520017758,1.3556349520222284,1.377766520017758,0.7500229849829338,0.7227658799965866,2.127789505000692,0.4010181550402194,0.37199577799765393,2.5288076600409113,0.418209797993768,0.3882784050074406,2.9470174580346793,0.46783162996871397,0.43459315301151946,3.4148490880033933,0.4001613220316358,0.37076189601793885,3.815010410035029,0.40184440999291837,0.3693312000250444,4.216854820027947,0.3680630730232224,0.3230694599915296,4.58491789305117,0.3842445269692689,0.3561587100266479,4.969162420020439,0.3339188600075431,0.30404568795347586,5.303081280027982,0.3845475949929096,0.3562804840039462,5.687628875020891,0.5016651150071993,0.4723123520379886,6.189293990028091,0.35000353498617187,0.32165537297260016,6.539297525014263,f,1,2.611738512001466,,,,,,,,,,,,,,,,,,,,,,,,,,,,,,,,,,,,,,,,,,,10,001,1,2,2018_Oct_04_1542,Dissertation,59.88922004428605,
congruent_right,j,1,Sometimes the sentences will be longer,Some sentences are long.,Verdadero,Falso,f,practice,,,,,,,,,,,,,,,,,,,0,0,0,0,0,1,1,1,,,,,,,,,,,,,,,,,,,,,,,,,,,,,,,,,,1.1453772530076094,1.1327819600119255,1.1453772530076094,0.7521678369957954,0.7227338050142862,1.8975450900034048,0.5840748779592104,0.5549649180029519,2.481619967962615,0.568640117009636,0.5397294400027022,3.050260084972251,0.48454853502335027,0.455046062998008,3.5348086199956015,0.41743102099280804,0.3884449179749936,3.9522396409884095,,,,,,,,,,,,,,,,,,,,,,f,1,1.5774043580167927,,,,,,,,,,,,,,,,,,,,,,,,,,,,,,,,,,,,,,,,,,,10,001,1,2,2018_Oct_04_1542,Dissertation,59.88922004428605,
incongruent_left,f,0,Sometimes they'll be short,All sentences are the same.,Verdadero,Falso,j,practice,,,,,,,,,,,,,,,,,,,0,0,0,0,0,2,2,2,,,,,,,,,,,,,,,,,,,,,,,,,,,,,,,,,,0.6767120620352216,0.6601292719715275,0.6767120620352216,0.40208229300333187,0.3853446069988422,1.0787943550385535,0.36801361496327445,0.338944487972185,1.446807970001828,0.4006677269935608,0.3721547480090521,1.8474756969953887,,,,,,,,,,,,,,,,,,,,,,,,,,,,j,1,1.6757591479690745,,,,,,,,,,,,,,,,,,,,,,,,,,,,,,,,,,,,,,,,,,,10,001,1,2,2018_Oct_04_1542,Dissertation,59.88922004428605,
incongruent_right,j,0,Your task is to read the sentence in the most natural way possible,You don't have to pay attention to the sentence.,Verdadero,Falso,j,practice,,,,,,,,,,,,,,,,,,,0,0,0,0,0,3,3,3,,,,,,,,,,,,,,,,,,,,,,,,,,,,,,,,,,0.8458321919897571,0.8353943849797361,0.8458321919897571,0.4848760830354877,0.4556232169852592,1.3307082750252448,0.4339890749542974,0.4054631399922073,1.7646973499795422,0.3347411670256406,0.30138967698439956,2.099438517005183,0.30031220498494804,0.26993885304545984,2.399750721990131,0.31766625301679596,0.28869372798362747,2.717416975006927,0.35117787501076236,0.322278389998246,3.068594850017689,0.31618955498561263,0.2833441580296494,3.384784405003302,0.4188104149652645,0.3851398630067706,3.8035948199685663,0.40153741504764184,0.37240439001470804,4.205132235016208,0.3674301249557175,0.3389627850265242,4.572562359971926,0.40141428500646725,0.3727931029861793,4.973976644978393,0.4008326019975357,0.37273479998111725,5.3748092469759285,j,1,3.5641779230209067,,,,,,,,,,,,,,,,,,,,,,,,,,,,,,,,,,,,,,,,,,,10,001,1,2,2018_Oct_04_1542,Dissertation,59.88922004428605,
single_left,f,0,The questions that follow each sentence sometimes will be obvious and sometimes more difficult ,The difficulty of each sentence varies.,Verdadero,Falso,f,practice,,,,,,,,,,,,,,,,,,,0,0,0,0,0,4,4,4,,,,,,,,,,,,,,,,,,,,,,,,,,,,,,,,,,1.697557572973892,1.6727663690107875,1.697557572973892,0.7024221569881774,0.6688077350263484,2.3999797299620695,0.3173069680342451,0.28406347800046206,2.7172866979963146,0.38469608197920024,0.3562682530027814,3.101982779975515,0.4329131940030493,0.40016974200261757,3.534895973978564,0.3688900179695338,0.33910022594500333,3.903785991948098,0.30056010105181485,0.2719607549952343,4.204346092999913,0.33491714496631175,0.3056143950088881,4.5392632379662246,0.5512811469961889,0.5237749020452611,5.0905443849624135,0.384344769991003,0.3552763679763302,5.474889154953416,0.4344366129953414,0.40243849001126364,5.909325767948758,0.3839815550018102,0.3553812879836187,6.293307322950568,0.38372890604659915,0.355067940952722,6.677036228997167,f,1,1.525455497961957,0.33525197400012985,0.30683655897155404,7.012288202997297,,,,,,,,,,,,,,,,,,,,,,,,,,,,,,,,,,,,,,,,10,001,1,2,2018_Oct_04_1542,Dissertation,59.88922004428605,
single_right,j,0,It's no problem if you need to guess the answer from time to time,It's important that you don't guess.,Verdadero,Falso,j,practice,,,,,,,,,,,,,,,,,,,0,0,0,0,0,5,5,5,,,,,,,,,,,,,,,,,,,,,,,,,,,,,,,,,,0.7609488519956358,0.7513173620100133,0.7609488519956358,0.43510703300125897,0.40601781697478145,1.1960558849968947,0.3002600200125016,0.2722577899694443,1.4963159050093964,0.28398813703097403,0.25524061504984275,1.7803040420403704,0.30066818796331063,0.27225705300224945,2.080972230003681,0.33457135199569166,0.30502313998294994,2.4155435819993727,0.3845557580352761,0.35545675305183977,2.8000993400346488,0.3165645519620739,0.28760967997368425,3.1166638919967227,0.30208350304747,0.2714075459516607,3.4187473950441927,0.3840076219639741,0.3551060300087556,3.8027550170081668,0.3512317099957727,0.32239642197964713,4.1539867270039394,0.3667488030041568,0.33829248504480347,4.520735530008096,0.20066365197999403,0.17110347497509792,4.72139918198809,j,1,2.1437394869863056,0.6190631880308501,0.589985019993037,5.34046237001894,,,,,,,,,,,,,,,,,,,,,,,,,,,,,,,,,,,,,,,,10,001,1,2,2018_Oct_04_1542,Dissertation,59.88922004428605,
,,,,,,,,,,,,,,,,,,,,,,,,,,,0,0,0,0,,,,,,,,,,,,,,,,,,,,,,,,,,,,,,,,,,,,,,,,,,,,,,,,,,,,,,,,,,,,,,,,,,,,,,,,,,,,,,,,,,,,,,,,,,,,,,,,,,,,,,,,,,,,,,,,,,,,,,,,,,10,001,1,2,2018_Oct_04_1542,Dissertation,59.88922004428605,
,,,,,,,,,,,,,,,,,,,,,,,,,,,,,,,,,,,,,,,,,,,,,,,,,,,,,,,,,,,,,,,,,,,,,,,,,,,,,,,,,,,,,,,,,,,,,,,,,,,,,,,,,,,,,,,,,space,5.803819446999114,,,,,,,,,,,,,,,,,,,,,,,,,,,,,,,,,,,,,,10,001,1,2,2018_Oct_04_1542,Dissertation,59.88922004428605,
,,None,,,Verdadero,Falso,j,None,congruent_left,El chico corrió en el parque ayer,None,None,None,None,f,None,0,El chico no hizo nada ayer.,,,,,,,,,,,,,,,,,0,0,0,0,0,0,0,0,,,,,,,,,,,,,,,,,,,,,,,,,,1.1354419050039724,1.1262670819996856,1.1354419050039724,0.7521110269590281,0.7193749329890124,1.8875529319630004,0.568074400012847,0.5386757780215703,2.4556273319758475,1.587806659983471,1.558494361990597,4.0434339919593185,0.4178381400415674,0.38615131995175034,4.461272132000886,0.3340332100051455,0.30587067996384576,4.795305342006031,0.4513034499832429,0.4230523150181398,5.246608791989274,,,,,,,,,,,,,,,,,,,,,,,,,,,space,3.64353389502503,f,1,1.791716389998328,j,1,3.058817924989853,None,,,,,,,,,,,,,,,,,,,,,,,,,,,,,10,001,1,2,2018_Oct_04_1542,Dissertation,59.88922004428605,
,,None,,,Verdadero,Falso,f,None,congruent_right,Me gusta vivir en la ciudad de Washington porque tiene mucha historia,None,None,None,None,j,None,0,Estoy contento viviendo en D.C.,,,,,,,,,,,,,,,,,0,0,0,0,0,1,1,3,,,,,,,,,,,,,,,,,,,,,,,,,,1.401784139976371,1.3888137870235369,1.401784139976371,0.5179572500055656,0.4848818749887869,1.9197413899819367,0.6686756479903124,0.6380268499488011,2.588417037972249,0.7194365270552225,0.6890162479830906,3.3078535650274716,0.3840879429480992,0.35559120698599145,3.691941507975571,0.40132285200525075,0.3731589980307035,4.093264359980822,0.38421494502108544,0.3553731000283733,4.477479305001907,0.4507802599691786,0.4178671800182201,4.928259564971086,0.6022854930488393,0.5731064080027863,5.530545058019925,0.4669338969979435,0.43825428502168506,5.997478955017868,1.4046737480093725,1.3715030180173926,7.402152703027241,0.5013576299534179,0.4726113950018771,7.903510332980659,,,,,,,,,,,,,,j,1,1.0567445550113916,f,1,3.0924217450083233,None,,,,,,,,,,,,,,,,,,,,,,,,,,,,,10,001,1,2,2018_Oct_04_1542,Dissertation,59.88922004428605,
,,None,,,Verdadero,Falso,f,None,incongruent_right,Estudio mucho durante la semana para poder divertirme durante el fin de semana,None,None,None,None,j,None,0,No voy a la biblioteca mucho los fines de semana.,,,,,,,,,,,,,,,,,0,0,0,0,0,2,2,2,,,,,,,,,,,,,,,,,,,,,,,,,,1.168700667039957,1.1547344120335765,1.168700667039957,0.41828115994576365,0.38883618998806924,1.5869818269857205,0.4332660680520348,0.4048635149956681,2.0202478950377554,0.5355049449717626,0.5054347649565898,2.555752840009518,0.4182456419803202,0.3888590979622677,2.973998481989838,0.36766493500908837,0.3382032730150968,3.3416634169989266,0.5849549950216897,0.555594019999262,3.9266184120206162,1.7380221849889494,1.7100000260397792,5.664640597009566,0.7184259250061586,0.6898965650470927,6.383066522015724,0.6175099129904993,0.5876224999665283,7.000576435006224,0.3520931070088409,0.3218995430506766,7.3526695420150645,0.38384208799107,0.3549161200062372,7.7365116300061345,0.38342711102450266,0.35339912603376433,8.119938741030637,,,,,,,,,,,j,1,0.9366181869991124,f,1,3.342178410035558,None,,,,,,,,,,,,,,,,,,,,,,,,,,,,,10,001,1,2,2018_Oct_04_1542,Dissertation,59.88922004428605,
,,None,,,Verdadero,Falso,j,None,incongruent_left,Mi estación preferida es el verano,None,None,None,None,f,None,0,Me gusta el invierno más que las otras estaciones.,,,,,,,,,,,,,,,,,0,0,0,0,0,3,3,1,,,,,,,,,,,,,,,,,,,,,,,,,,0.7175996820442379,0.7092338009970263,0.7175996820442379,0.4010726929991506,0.3680164379766211,1.1186723750433885,1.0872612649691291,1.0547561880084686,2.2059336400125176,1.185790462011937,1.1540022499975748,3.3917241020244546,0.46738907299004495,0.4382033349829726,3.8591131750144996,0.6523146170075051,0.6225580919999629,4.511427792022005,,,,,,,,,,,,,,,,,,,,,,,,,,,,,,,,f,1,0.8070390649954788,j,1,4.818987731996458,None,,,,,,,,,,,,,,,,,,,,,,,,,,,,,10,001,1,2,2018_Oct_04_1542,Dissertation,59.88922004428605,
,,None,,,Verdadero,Falso,j,None,single_left,A Iván le gusta cocinar y toma clases de gastronomía,None,None,None,None,f,None,0,Iván cocina mucho.,,,,,,,,,,,,,,,,,0,0,0,0,0,4,4,5,,,,,,,,,,,,,,,,,,,,,,,,,,1.2024254249990918,1.1873094309703447,1.2024254249990918,0.5515601030201651,0.5229031580383889,1.753985528019257,0.5846713819773868,0.5521592230070382,2.3386569099966437,0.5342969130142592,0.5047015579766594,2.872953823010903,1.5046848449856043,1.475040182005614,4.377638667996507,1.3034224000293761,1.2750692130066454,5.681061068025883,0.6349782319739461,0.6066955550340936,6.316039299999829,0.9525224980316125,0.9231802700087428,7.268561798031442,1.5037052069674246,1.4745560850133188,8.772267004998866,1.637062275025528,1.607949754979927,10.409329280024394,,,,,,,,,,,,,,,,,,,,None,0,,f,0,4.683929239981808,None,,,,,,,,,,,,,,,,,,,,,,,,,,,,,10,001,1,2,2018_Oct_04_1542,Dissertation,59.88922004428605,
,,None,,,Verdadero,Falso,f,None,single_right,La madre de Julieta vive en Filadelfia así que Julieta la visita mucho,None,None,None,None,j,None,0,Julieta y su madre se ven mucho.,,,,,,,,,,,,,,,,,0,0,0,0,0,5,5,4,,,,,,,,,,,,,,,,,,,,,,,,,,0.9851564500131644,0.9697298479732126,0.9851564500131644,0.4679900479968637,0.43947262002620846,1.4531464980100282,0.5345622720196843,0.5024861940182745,1.9877087700297125,0.48500969796441495,0.4522054250119254,2.4727184679941274,0.7184730720473453,0.7136466879746877,3.1911915400414728,0.48398267797892913,0.42138838302344084,3.675174218020402,0.7524585400242358,0.7190074999816716,4.427632758044638,0.667941516963765,0.6390069599729031,5.095574275008403,0.5019273880170658,0.4721590999979526,5.597501663025469,1.2868705569999292,1.2578177779796533,6.884372220025398,0.7182686079759151,0.689421957009472,7.602640828001313,0.584547572012525,0.5553645099862479,8.187188400013838,0.7184233650332317,0.6890037099947222,8.90561176504707,,,,,,,,,,,j,1,0.8916283369762823,f,1,6.2204103950061835,None,,,,,,,,,,,,,,,,,,,,,,,,,,,,,10,001,1,2,2018_Oct_04_1542,Dissertation,59.88922004428605,
,,,,,,,,,,,,,,,,,,,,,,,,,,,,,,,,,,,0,0,0,0,,,,,,,,,,,,,,,,,,,,,,,,,,,,,,,,,,,,,,,,,,,,,,,,,,,,,,,,,,,,,,,,,,,,,,,,,,,,,,,,,,,,,,,,,,,,,,,,,,,,,,,,,,,,,,,,,,10,001,1,2,2018_Oct_04_1542,Dissertation,59.88922004428605,
,,,,,,,,,,,,,,,,,,,,,,,,,,,,,,,,,,,,,,,,,,,,,,,,,,,,,,,,,,,,,,,,,,,,,,,,,,,,,,,,,,,,,,,,,,,,,,,,,,,,,,,,,,,,,,,,,,,,,,,,,,,,space,8.009431437996682,,,,,,,,,,,,,,,,,,,,,,,,,,,10,001,1,2,2018_Oct_04_1542,Dissertation,59.88922004428605,
,,0,,,Verdadero,Falso,j,A,incongruent_right,Después de lavar la ropa Antonio prepara la cena,0,0,1,0,j,0,215,Antonio hace varios deberes por la noche.,,,,,,,,,,,,,,,,,,,,,,,,,0,0,0,0,0,0,0,44,,,,,,,,,,,,,,,,,,0.8512105219997466,0.8395258539821953,0.8512105219997466,0.41714741301257163,0.3883914580219425,1.2683579350123182,0.40187922498444095,0.37226176500553265,1.6702371599967591,0.6853320369846188,0.6563246549922042,2.355569196981378,0.46796875301515684,0.43940204998943955,2.8235379499965347,0.4676149319857359,0.4351390000083484,3.2911528819822706,0.8691549400100484,0.8401386329787783,4.160307821992319,0.4516997350146994,0.4232580350362696,4.6120075570070185,0.3834788429667242,0.3511018970166333,4.995486399973743,,,,,,,,,,,,,,,,,,,,,,,j,1,0.9553285649744794,f,0,7.373399101954419,,,,None,None,,,,,,,,,,,,,,,,,,,,,,,,,10,001,1,2,2018_Oct_04_1542,Dissertation,59.88922004428605,
,,0,,,Verdadero,Falso,j,A,incongruent_left,Después de que limpiaron la casa brillaba por todas partes,1,1,1,0,f,1,2,Todavía tienen que limpiar la sala.,,,,,,,,,,,,,,,,,,,,,,,,,0,0,0,0,0,1,1,1,,,,,,,,,,,,,,,,,,1.252489765000064,1.2406170669710264,1.252489765000064,0.45135268196463585,0.42329253494972363,1.7038424469646998,0.36707750300411135,0.33795993303647265,2.070919949968811,0.3342444450245239,0.3018108880496584,2.405164394993335,3.258004812989384,3.2275753390276805,5.663169207982719,0.5525703040184453,0.5237028329866007,6.215739512001164,0.46773138298885897,0.438961805019062,6.683470894990023,0.8514816819806583,0.8225806349655613,7.5349525769706815,0.6191814480116591,0.5853823199868202,8.15413402498234,0.5343902800232172,0.5054263269994408,8.688524305005558,,,,,,,,,,,,,,,,,,,,f,1,0.7549430200015195,j,1,5.235164879995864,,,,None,None,,,,,,,,,,,,,,,,,,,,,,,,,10,001,1,2,2018_Oct_04_1542,Dissertation,59.88922004428605,
,,0,,,Verdadero,Falso,f,A,single_left,a,0,0,0,1,f,0,301,a,,,,,,,,,,,,,,,,,,,,,,,,,0,0,0,0,0,2,2,60,,,,,,,,,,,,,,,,,,,,,,,,,,,,,,,,,,,,,,,,,,,,,,,,,,,,,,,,,,,,,,,,,,,f,1,0.9075405480107293,None,0,,,,,None,None,,,,,,,,,,,,,,,,,,,,,,,,,10,001,1,2,2018_Oct_04_1542,Dissertation,59.88922004428605,
,,0,,,Verdadero,Falso,f,A,single_right,a,0,0,0,1,j,0,310,a,,,,,,,,,,,,,,,,,,,,,,,,,0,0,0,0,0,3,3,69,,,,,,,,,,,,,,,,,,,,,,,,,,,,,,,,,,,,,,,,,,,,,,,,,,,,,,,,,,,,,,,,,,,j,1,0.8733756250003353,None,0,,,,,None,None,,,,,,,,,,,,,,,,,,,,,,,,,10,001,1,2,2018_Oct_04_1542,Dissertation,59.88922004428605,
,,0,,,Verdadero,Falso,j,A,incongruent_right,La señora insertó la tarjeta que su pareja le dejó en su cartera en la máquina para pagar,1,1,1,0,j,1,19,La mujer puso la tarjeta en su cartera.,,,,,,,,,,,,,,,,,,,,,,,,,0,0,0,0,0,4,4,18,,,,,,,,,,,,,,,,,,1.185341653006617,1.1696720480103977,1.185341653006617,0.5681318999850191,0.5393912550061941,1.753473552991636,0.8689411749946885,0.8363010049797595,2.6224147279863246,0.7689251370029524,0.7404385019908659,3.391339864989277,0.6848207180155441,0.6525040220003575,4.076160583004821,0.6680958519573323,0.6350809349678457,4.744256434962153,0.46758699003839865,0.4379703020094894,5.211843425000552,1.2702621349599212,1.2406606749864295,6.482105559960473,1.487680000020191,1.4581247949972749,7.969785559980664,1.2196745830005966,1.190459217003081,9.189460142981261,0.8357890450279228,0.8066046579624526,10.025249188009184,0.501552814966999,0.4745228899992071,10.526802002976183,0.384065689984709,0.35478117695311084,10.910867692960892,,,,0.5683149750111625,0.5401643179939128,11.479182667972054,,,,,j,1,0.7905884530046023,f,0,8.606119207048323,,,,None,None,0.8856586850015447,0.8368994169868529,12.364841352973599,0.4849607319920324,0.45244700502371415,12.849802084965631,1.2699631649884395,1.2406279899878427,14.119765249954071,0.4009791680146009,0.3728766299900599,14.520744417968672,,,,,,,,,,,,,10,001,1,2,2018_Oct_04_1542,Dissertation,59.88922004428605,
,,0,,,Verdadero,Falso,f,A,single_right,Me reí cuando mi amiga me contó la historia de su encuentro con su ex.,0,0,0,1,j,0,220,La historia de mi amiga me dio gracia.,,,,,,,,,,,,,,,,,,,,,,,,,0,0,0,0,0,5,5,49,,,,,,,,,,,,,,,,,,1.0181554849841632,1.0044491539592855,1.0181554849841632,0.4852478950051591,0.45636944501893595,1.5034033799893223,0.5175294100190513,0.48865269700763747,2.0209327900083736,1.5199586770031601,1.4867869979934767,3.5408914670115337,0.6022817880148068,0.5721707249758765,4.1431732550263405,0.4018088149605319,0.37255850504152477,4.544982069986872,0.38418159499997273,0.35173204995226115,4.929163664986845,1.203131562040653,1.1739279499743134,6.132295227027498,0.6850864849984646,0.6367541250074282,6.817381712025963,0.5845949229551479,0.5551478849956766,7.401976634981111,0.5178834919934161,0.4888402549549937,7.919860126974527,0.3849772500107065,0.35508011997444555,8.304837376985233,0.668362119991798,0.6410333999665454,8.973199496977031,,,,0.43418260500766337,0.4099435189855285,9.407382101984695,,,,,j,1,0.8900328149902634,f,1,7.089373989962041,,,,None,None,0.4680671330424957,0.4395191349904053,9.87544923502719,,,,,,,,,,,,,,,,,,,,,,10,001,1,2,2018_Oct_04_1542,Dissertation,59.88922004428605,
,,1,,,Verdadero,Falso,f,A,congruent_left,Antes de que bebieran el vino se volvió vinagre ,1,1,0,0,f,0,5,No tomaron vino porque se había echado a perder.,,,,,,,,,,,,,,,,,,,,,,,,,0,0,0,0,0,6,6,4,,,,,,,,,,,,,,,,,,1.151776954997331,1.1415253119776025,1.151776954997331,0.45178342500003055,0.4223754999693483,1.6035603799973615,0.3670521780150011,0.3382729680160992,1.9706125580123626,0.3516582199954428,0.32177066698204726,2.3222707780078053,2.5565877269837074,2.5242372379871085,4.878858504991513,0.517723378026858,0.4888754179701209,5.396581883018371,0.8688086469774134,0.8401609769789502,6.265390529995784,0.6854882449842989,0.6577513070078567,6.950878774980083,1.6041816780343652,1.574717329989653,8.555060453014448,,,,,,,,,,,,,,,,,,,,,,,f,1,0.8740136649576016,j,0,8.121058382967021,,,,None,None,,,,,,,,,,,,,,,,,,,,,,,,,10,001,1,2,2018_Oct_04_1542,Dissertation,59.88922004428605,
,,0,,,Verdadero,Falso,j,A,incongruent_left,La pantalla de mi computadora se me rompió,0,0,1,0,f,0,221,Mi computadora está en una condición perfecta.,,,,,,,,,,,,,,,,,,,,,,,,,0,0,0,0,0,7,7,50,,,,,,,,,,,,,,,,,,1.436500834999606,1.4148519070004113,1.436500834999606,0.43424729199614376,0.4025488129700534,1.8707481269957498,0.4334088659961708,0.4035704609705135,2.3041569929919206,0.6354008039925247,0.6052590059698559,2.9395577969844453,0.5183120709843934,0.4883391030016355,3.4578698679688387,0.6524434339953586,0.6244623080128804,4.110313301964197,0.6336696110083722,0.6047994759865105,4.7439829129725695,0.7689534720266238,0.7396584809757769,5.512936384999193,,,,,,,,,,,,,,,,,,,,,,,,,,f,1,0.6733411129680462,j,1,2.630499068007339,,,,None,None,,,,,,,,,,,,,,,,,,,,,,,,,10,001,1,2,2018_Oct_04_1542,Dissertation,59.88922004428605,
,,1,,,Verdadero,Falso,f,A,congruent_right,Mi hija pintó el cuadro que está en la pared de mi oficina,0,0,0,0,j,0,219,Tengo arte colgado en mi oficina.,,,,,,,,,,,,,,,,,,,,,,,,,0,0,0,0,0,8,8,48,,,,,,,,,,,,,,,,,,1.8542196080088615,1.8422922839527018,1.8542196080088615,0.3829576460411772,0.350131724961102,2.2371772540500388,0.3683507709647529,0.3356260089785792,2.6055280250147916,0.8862875230261125,0.857584411976859,3.491815548040904,0.5181192950112745,0.4863352020038292,4.009934843052179,0.6015745549811982,0.5728450549650006,4.611509398033377,0.700980024994351,0.6714968949672766,5.312489423027728,0.9026728069875389,0.8725301829981618,6.215162230015267,0.3994781840010546,0.368291919992771,6.614640414016321,0.3851725450367667,0.3545662219985388,6.999812959053088,0.8364292559563182,0.8061309399781749,7.836242215009406,0.41764396301005036,0.384875766991172,8.253886178019457,0.4349244949989952,0.406685612979345,8.688810673018452,,,,,,,,,,,j,1,0.63973196700681,f,1,5.048818602983374,,,,None,None,,,,,,,,,,,,,,,,,,,,,,,,,10,001,1,2,2018_Oct_04_1542,Dissertation,59.88922004428605,
,,0,,,Verdadero,Falso,j,A,single_left,Los estudiantes hicieron el trabajo en equipo en la biblioteca,0,0,0,1,f,0,202,Los estudiantes hicieron la tarea en el café.,,,,,,,,,,,,,,,,,,,,,,,,,0,0,0,0,0,9,9,31,,,,,,,,,,,,,,,,,,0.6676874129916541,0.6553251569857821,0.6676874129916541,0.5182855870225467,0.4904613899998367,1.1859730000142008,0.6009096279740334,0.5719572670059279,1.7868826279882342,1.6882010370027274,1.6546753399888985,3.4750836649909616,0.4176547650131397,0.3890127869672142,3.8927384300041012,2.138778904976789,2.109862222976517,6.03151733498089,0.6355350750382058,0.605855822970625,6.667052410019096,1.3531241429736838,1.3239893629797734,8.02017655299278,0.5168691470171325,0.4867910380125977,8.537045700009912,0.6196909379796125,0.5867526960209943,9.156736637989525,,,,,,,,,,,,,,,,,,,,f,1,0.7351115030469373,j,1,5.586758637975436,,,,None,None,,,,,,,,,,,,,,,,,,,,,,,,,10,001,1,2,2018_Oct_04_1542,Dissertation,59.88922004428605,
,,1,,,Verdadero,Falso,f,A,congruent_right,Siempre que la niña salta la cuerda le da por la cabeza,1,1,0,0,j,0,4,La niña se golpea cuando juega.,,,,,,,,,,,,,,,,,,,,,,,,,0,0,0,0,0,10,10,3,,,,,,,,,,,,,,,,,,0.8858095280011185,0.8699272079975344,0.8858095280011185,0.45008767797844484,0.42158876796020195,1.3358972059795633,0.7694614839856513,0.7195746399811469,2.1053586899652146,1.4199273150297813,1.3730347429518588,3.525286004994996,1.1863904210040346,1.1569902329938486,4.7116764259990305,1.0030234240111895,0.9753370179678313,5.71469985001022,0.38441788795171306,0.33805809600744396,6.099117737961933,0.43516564602032304,0.40525526797864586,6.534283383982256,0.33517704100813717,0.2879183830227703,6.869460424990393,2.5079344629775733,2.463134406018071,9.377394887967966,0.45162312203319743,0.4251278970041312,9.829018010001164,0.6178851949516684,0.5723169050179422,10.446903204952832,,,,,,,,,,,,,,j,1,0.7907228140393272,f,1,5.286723825032823,,,,None,None,,,,,,,,,,,,,,,,,,,,,,,,,10,001,1,2,2018_Oct_04_1542,Dissertation,59.88922004428605,
,,0,,,Verdadero,Falso,j,A,incongruent_left,Cuando los jardineros terminaron el jardín quedó lleno de flores,1,1,1,0,f,1,10,Los jardineros todavía no acaban su trabajo.,,,,,,,,,,,,,,,,,,,,,,,,,0,0,0,0,0,11,11,9,,,,,,,,,,,,,,,,,,0.6851870820391923,0.6708599110133946,0.6851870820391923,0.9528785449801944,0.9201086580287665,1.6380656270193867,0.7854183950112201,0.7563563830335625,2.423484022030607,0.6855439799837768,0.6560339679708704,3.1090280020143837,0.9360694930073805,0.9074289219570346,4.045097495021764,1.0855653019971214,1.0572789669968188,5.130662797018886,0.6511534000164829,0.6218292129924521,5.7818161970353685,0.8186610999982804,0.7875323279877193,6.600477297033649,1.01958773995284,0.9908539869938977,7.620065036986489,0.4349499630043283,0.4015738799935207,8.055014999990817,,,,,,,,,,,,,,,,,,,,f,1,0.8219120550202206,j,1,3.5599868599674664,,,,None,None,,,,,,,,,,,,,,,,,,,,,,,,,10,001,1,2,2018_Oct_04_1542,Dissertation,59.88922004428605,
,,1,,,Verdadero,Falso,f,A,congruent_left,Después de que comieron el pollo se enfrió inmediatamente ,1,1,0,0,f,0,1,Comieron el pollo caliente.,,,,,,,,,,,,,,,,,,,,,,,,,0,0,0,0,0,12,12,0,,,,,,,,,,,,,,,,,,0.6529370609787293,0.6410400160239078,0.6529370609787293,0.5349512179964222,0.5053973029716872,1.1878882789751515,0.4051955370232463,0.376839549979195,1.5930838159983978,0.4637727699591778,0.422157668042928,2.0568565859575756,0.8019696780247614,0.7736080429749563,2.858826263982337,1.9202775519806892,1.8913087650435045,4.779103815963026,0.4684685640386306,0.4219519409816712,5.247572380001657,0.5176425899844617,0.47029360698070377,5.765214969986118,0.8700813640025444,0.8409574049874209,6.635296333988663,,,,,,,,,,,,,,,,,,,,,,,f,1,0.5203897409955971,f,1,6.0196106910007074,,,,None,None,,,,,,,,,,,,,,,,,,,,,,,,,10,001,1,2,2018_Oct_04_1542,Dissertation,59.88922004428605,
,,0,,,Verdadero,Falso,f,A,incongruent_right,a,0,0,1,0,j,0,315,a,,,,,,,,,,,,,,,,,,,,,,,,,0,0,0,0,0,13,13,74,,,,,,,,,,,,,,,,,,,,,,,,,,,,,,,,,,,,,,,,,,,,,,,,,,,,,,,,,,,,,,,,,,,j,1,0.6047397730289958,None,0,,,,,None,None,,,,,,,,,,,,,,,,,,,,,,,,,10,001,1,2,2018_Oct_04_1542,Dissertation,59.88922004428605,
,,0,,,Verdadero,Falso,j,A,incongruent_left,Los chicos acomodaron la manta que sus padres les dejaron dentro del clóset antes de dormir,0,1,1,0,f,0,136,Los chicos no usaron la manta.,,,,,,,,,,,,,,,,,,,,,,,,,0,0,0,0,0,14,14,27,,,,,,,,,,,,,,,,,,0.7012085099704564,0.6870869030244648,0.7012085099704564,0.48312059498857707,0.4534874929813668,1.1843291049590334,0.4033573100459762,0.3729627270367928,1.5876864150050096,1.921388613001909,1.877726907026954,3.5090750280069187,0.40110160497715697,0.35557442798744887,3.9101766329840757,0.8518535519833677,0.8061698150122538,4.762030184967443,0.5845827130251564,0.5566716030007228,5.3466128979926,0.5517893219948746,0.5228060349472798,5.898402219987474,0.6185992200043984,0.589767862984445,6.517001439991873,0.6684835500200279,0.6231714750174433,7.185484990011901,1.5201876999926753,1.493052944948431,8.705672690004576,1.2705824080039747,1.2413490819744766,9.97625509800855,0.5176600019913167,0.46847630001138896,10.493915099999867,,,,0.48477862996514887,0.45518900494789705,10.978693729965016,,,,,f,1,0.5201218559523113,f,0,4.6841285770060495,,,,None,None,0.40062706801109016,0.37180212000384927,11.379320797976106,0.4505787870148197,0.4206751300371252,11.829899584990926,,,,,,,,,,,,,,,,,,,10,001,1,2,2018_Oct_04_1542,Dissertation,59.88922004428605,
,,1,,,Verdadero,Falso,f,A,congruent_left,Cuando la chica lava los platos se quedan bien sucios,1,1,0,0,f,0,9,La chica lava sin cuidado.,,,,,,,,,,,,,,,,,,,,,,,,,0,0,0,0,0,15,15,8,,,,,,,,,,,,,,,,,,0.6005424300092272,0.5893206270411611,0.6005424300092272,0.43484845699276775,0.40540496696485206,1.035390887001995,0.3341026100097224,0.3061944830114953,1.3694934970117174,0.5520354479667731,0.5229227719828486,1.9215289449784905,0.3839722219854593,0.33946950000245124,2.30550116696395,0.4510559330228716,0.42320271994685754,2.7565570999868214,0.36774476198479533,0.339370702044107,3.1243018619716167,0.33386216301005334,0.30463399802101776,3.45816402498167,0.5514481419813819,0.52245899499394,4.009612166963052,0.7855940030422062,0.7556849629618227,4.795206170005258,,,,,,,,,,,,,,,,,,,,f,1,0.6557172350003384,f,1,4.248544108006172,,,,None,None,,,,,,,,,,,,,,,,,,,,,,,,,10,001,1,2,2018_Oct_04_1542,Dissertation,59.88922004428605,
,,0,,,Verdadero,Falso,f,A,incongruent_right,Después de que llegué el maratón empezó inmediatamente,0,1,1,0,j,0,121,Llegué para ver el inicio de la carrera.,,,,,,,,,,,,,,,,,,,,,,,,,0,0,0,0,0,16,16,20,,,,,,,,,,,,,,,,,,1.3023046670132317,1.2908919680048712,1.3023046670132317,0.7524580580065958,0.7238056950154714,2.0547627250198275,0.6687372649903409,0.6405201649758965,2.7234999900101684,0.43332245998317376,0.4053343649720773,3.156822449993342,1.5700461409869604,1.5388390359585173,4.7268685909803025,0.4853640290093608,0.45451398502336815,5.212232619989663,0.8535465900204144,0.8245624430128373,6.065779210010078,1.202734082005918,1.1573655169922858,7.268513292015996,,,,,,,,,,,,,,,,,,,,,,,,,,j,1,0.5740168020129204,f,1,6.2884599569952115,,,,None,None,,,,,,,,,,,,,,,,,,,,,,,,,10,001,1,2,2018_Oct_04_1542,Dissertation,59.88922004428605,
,,0,,,Verdadero,Falso,j,A,single_left,Mis hijas están saltando la cuerda en el jardín,0,0,0,1,f,0,226,A mis hijas no les gusta jugar en el jardín.,,,,,,,,,,,,,,,,,,,,,,,,,0,0,0,0,0,17,17,55,,,,,,,,,,,,,,,,,,0.6510623049689457,0.6408852430176921,0.6510623049689457,0.3008396470104344,0.2724715149961412,0.9519019519793801,0.3172702300362289,0.28498905297601596,1.269172182015609,0.5343450229847804,0.5026321100303903,1.8035172050003894,0.8359369999961928,0.8061282329726964,2.639454204996582,0.40127359196776524,0.37262046500109136,3.0407277969643474,0.38367441500304267,0.35163167299469933,3.42440221196739,0.4016364650451578,0.37252637499477714,3.826038677012548,0.3836453299736604,0.3555122620309703,4.209684006986208,,,,,,,,,,,,,,,,,,,,,,,f,1,0.923818354960531,j,1,4.466502071998548,,,,None,None,,,,,,,,,,,,,,,,,,,,,,,,,10,001,1,2,2018_Oct_04_1542,Dissertation,59.88922004428605,
,,1,,,Verdadero,Falso,f,A,congruent_right,a,0,0,0,0,j,0,304,a,,,,,,,,,,,,,,,,,,,,,,,,,0,0,0,0,0,18,18,63,,,,,,,,,,,,,,,,,,,,,,,,,,,,,,,,,,,,,,,,,,,,,,,,,,,,,,,,,,,,,,,,,,,j,1,0.8401934499852359,None,0,,,,,None,None,,,,,,,,,,,,,,,,,,,,,,,,,10,001,1,2,2018_Oct_04_1542,Dissertation,59.88922004428605,
,,0,,,Verdadero,Falso,f,A,single_left,El mecánico estará de vacaciones solo unos días,0,0,0,1,f,0,230,El mecánico viaja solo.,,,,,,,,,,,,,,,,,,,,,,,,,0,0,0,0,0,19,19,59,,,,,,,,,,,,,,,,,,0.8016068669967353,0.7847860099864192,0.8016068669967353,0.29898136400152,0.266464532003738,1.1005882309982553,0.2677208259701729,0.23767384502571076,1.3683090569684282,0.7689594850526191,0.7380643960204907,2.1372685420210473,0.51912806998007,0.4890660550445318,2.6563966120011173,1.988745970011223,1.9629479800350964,4.64514258201234,1.3194023079704493,1.2907837969833054,5.96454488998279,0.7526971520273946,0.7227544170455076,6.717242042010184,,,,,,,,,,,,,,,,,,,,,,,,,,f,1,0.7198259530123323,j,0,6.121891557995696,,,,None,None,,,,,,,,,,,,,,,,,,,,,,,,,10,001,1,2,2018_Oct_04_1542,Dissertation,59.88922004428605,
,,0,,,Verdadero,Falso,j,A,incongruent_left,Los novios montaron la mesa que su amigo les dejó en su porche en la cocina de su nuevo apartamento ,1,1,1,0,f,1,18,Los novios pusieron la mesa en su porche.,,,,,,,,,,,,,,,,,,,,,,,,,0,0,0,0,0,20,20,17,,,,,,,,,,,,,,,,,,0.5344782919855788,0.5160806910134852,0.5344782919855788,0.28468377998797223,0.25519834499573335,0.8191620719735511,0.30081241799052805,0.2730519750039093,1.1199744899640791,1.6373346450272948,1.5924268470262177,2.757309134991374,1.1366673919837922,1.087511696969159,3.893976526975166,0.9690591529943049,0.9416576349758543,4.863035679969471,0.4676456850138493,0.43927940796129405,5.33068136498332,0.7013888019719161,0.671471982030198,6.032070166955236,0.9362555500119925,0.9054171250318177,6.968325716967229,1.0698708179988898,1.0372531570028514,8.038196534966119,0.8022197220125236,0.7739445400075056,8.840416256978642,0.45135208999272436,0.405112968001049,9.291768346971367,0.38361574499867857,0.3556309499545023,9.675384091970045,,,,0.518471033021342,0.48860808997415006,10.193855124991387,,,,,f,1,0.5897205930086784,j,1,6.822721057047602,,,,None,None,0.4682554369792342,0.4387488549691625,10.662110561970621,0.43475459498586133,0.4071546550258063,11.096865156956483,0.4493507580482401,0.4049648370128125,11.546215915004723,0.3518739569699392,0.30442402797052637,11.898089871974662,0.36809921002713963,0.3391301319934428,12.266189082001802,0.1832750479807146,0.15451060503255576,12.449464129982516,,,,,,,10,001,1,2,2018_Oct_04_1542,Dissertation,59.88922004428605,
,,0,,,Verdadero,Falso,f,A,single_right,El cocinero lava las verduras en el fregadero,0,0,0,1,j,0,204,El cocinero prepara las verduras él mismo.,,,,,,,,,,,,,,,,,,,,,,,,,0,0,0,0,0,21,21,33,,,,,,,,,,,,,,,,,,0.6009197779931128,0.5906936780083925,0.6009197779931128,0.30051041702972725,0.2682103299885057,0.90143019502284,0.30107475799741223,0.2721742450376041,1.2025049530202523,0.4340106549789198,0.40537467499962077,1.636515607999172,0.45175234001362696,0.4221845180145465,2.088267948012799,1.2696362999849953,1.236495342978742,3.3579042479977943,0.4008292250218801,0.3731384390266612,3.7587334730196744,0.41844302497338504,0.3850094020017423,4.1771764979930595,,,,,,,,,,,,,,,,,,,,,,,,,,j,1,0.8563004980096593,f,1,5.386318820004817,,,,None,None,,,,,,,,,,,,,,,,,,,,,,,,,10,001,1,2,2018_Oct_04_1542,Dissertation,59.88922004428605,
,,0,,,Verdadero,Falso,j,A,single_left,La participante brilló cuando ganó el maratón,0,0,0,1,f,0,218,La participante se quedó triste después del maratón.,,,,,,,,,,,,,,,,,,,,,,,,,0,0,0,0,0,22,22,47,,,,,,,,,,,,,,,,,,0.6679425950278528,0.6540512000210583,0.6679425950278528,0.45120829000370577,0.4187917970120907,1.1191508850315586,0.4343523629941046,0.40536072495160624,1.5535032480256632,0.40133861696813256,0.3725326900021173,1.9548418649937958,1.5860621799947694,1.5601899690227583,3.540904044988565,1.6384712050203234,1.609498209960293,5.1793752500088885,1.1866075699799694,1.1572679069940932,6.365982819988858,,,,,,,,,,,,,,,,,,,,,,,,,,,,,f,1,0.5031801609438844,j,1,4.483473965025041,,,,None,None,,,,,,,,,,,,,,,,,,,,,,,,,10,001,1,2,2018_Oct_04_1542,Dissertation,59.88922004428605,
,,0,,,Verdadero,Falso,f,A,single_left,Mi padre me partió el sándwich en dos para llevarlo a clase,0,0,0,1,f,0,222,Me compré la comida en la escuela. ,,,,,,,,,,,,,,,,,,,,,,,,,0,0,0,0,0,23,23,51,,,,,,,,,,,,,,,,,,0.6007568649947643,0.5892100839992054,0.6007568649947643,0.533967980009038,0.48465355299413204,1.1347248450038023,0.5019114019814879,0.47066330100642517,1.6366362469852902,0.7015618680161424,0.6689417079905979,2.3381981150014326,2.139572232030332,2.1108458780217916,4.477770347031765,0.43406405998393893,0.4058296729926951,4.911834407015704,1.403587865002919,1.3737078469712287,6.315422272018623,0.5521293549682014,0.5234612670028582,6.867551626986824,0.5353441350162029,0.5029542419943027,7.402895762003027,0.38352221500827,0.3554699249798432,7.786417977011297,2.389543994970154,2.3610586959985085,10.175961971981451,1.269957175012678,1.2411213700543158,11.445919146994129,,,,,,,,,,,,,,f,1,0.4389209519722499,j,0,2.3895971970050596,,,,None,None,,,,,,,,,,,,,,,,,,,,,,,,,10,001,1,2,2018_Oct_04_1542,Dissertation,59.88922004428605,
,,0,,,Verdadero,Falso,f,A,incongruent_left,a,0,0,1,0,f,0,313,a,,,,,,,,,,,,,,,,,,,,,,,,,0,0,0,0,0,24,24,72,,,,,,,,,,,,,,,,,,,,,,,,,,,,,,,,,,,,,,,,,,,,,,,,,,,,,,,,,,,,,,,,,,,f,1,0.48727521300315857,None,0,,,,,None,None,,,,,,,,,,,,,,,,,,,,,,,,,10,001,1,2,2018_Oct_04_1542,Dissertation,59.88922004428605,
,,0,,,Verdadero,Falso,j,A,incongruent_left,Antes de que cantaran esa canción no era muy conocida ,1,1,1,0,f,1,6,Todos ya se sabían la canción antes de la fiesta.,,,,,,,,,,,,,,,,,,,,,,,,,0,0,0,0,0,25,25,5,,,,,,,,,,,,,,,,,,0.6168159780208953,0.6021673670038581,0.6168159780208953,1.103550486965105,1.071445437031798,1.7203664649860002,0.38434088503709063,0.3558046479593031,2.104707350023091,0.4346588350017555,0.40565336000872776,2.5393661850248463,2.9243547049700283,2.896104209998157,5.463720889994875,2.055084938008804,2.0262898550136015,7.5188058280036785,0.7019353050272912,0.6723085090052336,8.22074113303097,0.3510559319984168,0.3219340150244534,8.571797065029386,0.30080895795254037,0.2718655220232904,8.872606022981927,0.38461632502730936,0.35525811498519033,9.257222348009236,,,,,,,,,,,,,,,,,,,,f,1,0.5858123730286025,j,1,3.079070120002143,,,,None,None,,,,,,,,,,,,,,,,,,,,,,,,,10,001,1,2,2018_Oct_04_1542,Dissertation,59.88922004428605,
,,0,,,Verdadero,Falso,j,A,incongruent_right,Los artistas van a donar tres estatuas a la ciudad,0,0,1,0,j,0,203,La ciudad va a comprar las estatuas.,,,,,,,,,,,,,,,,,,,,,,,,,0,0,0,0,0,26,26,32,,,,,,,,,,,,,,,,,,1.6371461199596524,1.6254236240056343,1.6371461199596524,0.6347202530014329,0.6060531300026923,2.2718663729610853,1.1359813020098954,1.1079434379935265,3.4078476749709807,0.4347543030162342,0.4018815979943611,3.842601977987215,0.5679334119777195,0.5388901479891501,4.410535389964934,0.5383962480118498,0.5140453730127774,4.948931637976784,0.6150807199883275,0.5720254220068455,5.564012357965112,0.4685621199896559,0.43974792503286153,6.032574477954768,1.3022133570048027,1.2738291749847122,7.33478783495957,0.3352680579992011,0.30504661198938265,7.670055892958771,,,,,,,,,,,,,,,,,,,,j,1,0.9412351479986683,j,1,4.729131364962086,,,,None,None,,,,,,,,,,,,,,,,,,,,,,,,,10,001,1,2,2018_Oct_04_1542,Dissertation,59.88922004428605,
,,0,,,Verdadero,Falso,j,A,incongruent_left,Mis amigas se reunieron en la escuela para ir a jugar fútbol,0,0,1,0,f,0,209,Jugaron béisbol mis amigas.  ,,,,,,,,,,,,,,,,,,,,,,,,,0,0,0,0,0,27,27,38,,,,,,,,,,,,,,,,,,0.7177752949646674,0.7063279979629442,0.7177752949646674,0.4012447749846615,0.3724315700237639,1.119020069949329,1.2026786020142026,1.1700156600563787,2.3216986719635315,0.5351140350103378,0.5062765200273134,2.8568127069738694,1.3706005500280298,1.325678749999497,4.227413257001899,0.4671986780012958,0.43854414502857253,4.694611935003195,0.4180890219868161,0.3884155169944279,5.112700956990011,0.7690406650071964,0.7400777200236917,5.881741621997207,0.38372240000171587,0.3553915780503303,6.265464021998923,0.5020828149863519,0.47335576196201146,6.767546836985275,0.3511513550183736,0.32281792303547263,7.118698192003649,0.43412341794464737,0.38894193002488464,7.552821609948296,,,,,,,,,,,,,,f,1,0.5713551369844936,j,1,5.820745608012658,,,,None,None,,,,,,,,,,,,,,,,,,,,,,,,,10,001,1,2,2018_Oct_04_1542,Dissertation,59.88922004428605,
,,1,,,Verdadero,Falso,f,A,congruent_left,Los autobuses en Madrid tienen más de quince pies de altura ,0,0,0,0,f,0,225,Los autobuses madrileños son muy altos.,,,,,,,,,,,,,,,,,,,,,,,,,0,0,0,0,0,28,28,54,,,,,,,,,,,,,,,,,,0.5007219699909911,0.48843396198935807,0.5007219699909911,0.31743647798430175,0.28807237301953137,0.8181584479752928,0.3001248419750482,0.27137938496889547,1.118283289950341,0.5185343680204824,0.4727615650044754,1.6368176579708233,0.5520895220106468,0.5229694849695079,2.18890717998147,0.7518110600067303,0.7194096220191568,2.9407182399882004,0.4002654399955645,0.3714399849995971,3.340983679983765,0.8022792449919507,0.7725472149904817,4.143262924975716,1.4704116799985059,1.4415557900210842,5.613674604974221,2.005531587987207,1.9757485470036045,7.619206192961428,0.4010193819995038,0.3715282049961388,8.020225574960932,,,,,,,,,,,,,,,,,f,1,0.38530619302764535,f,1,3.012777532043401,,,,None,None,,,,,,,,,,,,,,,,,,,,,,,,,10,001,1,2,2018_Oct_04_1542,Dissertation,59.88922004428605,
,,1,,,Verdadero,Falso,f,A,congruent_right,Elena colocó la tarea que la Sra. Sánchez le dejó encima de su mesa en su cuaderno sin mirar la nota,1,1,0,0,j,0,16,A Elena no le importó su nota.,,,,,,,,,,,,,,,,,,,,,,,,,0,0,0,0,0,29,29,15,,,,,,,,,,,,,,,,,,0.6008840979775414,0.5836554809939116,0.6008840979775414,0.40085017698584124,0.35461192001821473,1.0017342749633826,0.9192554950132035,0.8871454650070518,1.920989769976586,1.403777728031855,1.375459584989585,3.324767498008441,0.367780934961047,0.33969057200010866,3.692548432969488,1.0354841449880041,0.9893604469834827,4.728032577957492,0.935826561995782,0.9072905399953015,5.663859139953274,0.6856359950033948,0.656358107982669,6.349495134956669,0.4175196349970065,0.37298221001401544,6.767014769953676,0.38479078805539757,0.33633965003537014,7.151805558009073,0.41770338197238743,0.3849386100191623,7.569508939981461,0.5180963479797356,0.4905428910278715,8.087605287961196,1.0859707450144924,1.05414300999837,9.173576032975689,,,,0.4169060999993235,0.38786732498556376,9.590482132975012,,,,,j,1,0.7561609880067408,f,1,2.6443379380507395,,,,None,None,1.187125337019097,1.1586199789890088,10.77760746999411,0.46707306400639936,0.4214368080138229,11.244680534000508,0.45055639097699896,0.4192075169994496,11.695236924977507,0.9712363180005923,0.9414862669655122,12.6664732429781,0.35016236500814557,0.317822122015059,13.016635607986245,0.4012041899841279,0.37081503501394764,13.417839797970373,0.4011303349980153,0.3723007049993612,13.818970132968388,,,,10,001,1,2,2018_Oct_04_1542,Dissertation,59.88922004428605,
,,0,,,Verdadero,Falso,j,A,single_right,Cuando usó mi carro Jorge lo aparcó muy mal,0,0,0,1,j,0,212,No le presto mi carro a nadie.,,,,,,,,,,,,,,,,,,,,,,,,,0,0,0,0,0,30,30,41,,,,,,,,,,,,,,,,,,0.6177238280070014,0.6065790620050393,0.6177238280070014,0.7193158119916916,0.6861958920489997,1.337039639998693,0.9684763950062916,0.9394790519727394,2.3055160350049846,0.8017280040076002,0.770563216006849,3.107244039012585,0.7858755009947345,0.7520291900145821,3.8931195400073193,0.6354249030118808,0.6057646250119433,4.5285444430192,0.43375642999308184,0.38470394304022193,4.962300873012282,0.8859360369970091,0.8556826180429198,5.848236910009291,0.46845239301910624,0.4386247149668634,6.316689303028397,,,,,,,,,,,,,,,,,,,,,,,j,1,0.541777455015108,j,1,5.534024468041025,,,,None,None,,,,,,,,,,,,,,,,,,,,,,,,,10,001,1,2,2018_Oct_04_1542,Dissertation,59.88922004428605,
,,1,,,Verdadero,Falso,f,A,congruent_right,Cuando mi madre lavaba la ropa quedaba muy limpia,1,1,0,0,j,0,8,Mi madre me ayuda con el lavado de ropa.,,,,,,,,,,,,,,,,,,,,,,,,,0,0,0,0,0,31,31,7,,,,,,,,,,,,,,,,,,0.7514522499986924,0.7370806700200774,0.7514522499986924,0.6845711200148799,0.6558701579924673,1.4360233700135723,0.8359350329847075,0.8071406870149076,2.27195840299828,0.9186739750439301,0.8860364349675365,3.19063237804221,1.2703416119911708,1.2372030970291235,4.460973990033381,0.35150512296240777,0.3225461799884215,4.8124791129957885,0.3504701970377937,0.32167670503258705,5.162949310033582,1.0520348330028355,1.0234453169978224,6.214984143036418,0.46816569700604305,0.438888875010889,6.683149840042461,,,,,,,,,,,,,,,,,,,,,,,j,1,0.48920501000247896,j,0,4.2343973540118895,,,,None,None,,,,,,,,,,,,,,,,,,,,,,,,,10,001,1,2,2018_Oct_04_1542,Dissertation,59.88922004428605,
,,1,,,Verdadero,Falso,f,A,congruent_left,Justo después de bajarme el autobús falló de repente ,0,0,0,0,f,0,213,Deben mandar el autobús al mecánico.,,,,,,,,,,,,,,,,,,,,,,,,,0,0,0,0,0,32,32,42,,,,,,,,,,,,,,,,,,0.9346388769918121,0.9236324740340933,0.9346388769918121,0.3839164550299756,0.3509923749952577,1.3185553320217878,1.4711075599770993,1.441479569999501,2.789662891998887,0.40093003801302984,0.3714116499759257,3.190592930011917,0.8023546320036985,0.7727073829737492,3.9929475620156154,0.5020924429991283,0.47243716299999505,4.495040005014744,0.9840099069988355,0.9551598950056359,5.479049912013579,0.9876515080104582,0.9574619829654694,6.466701420024037,1.1528819469967857,1.1251714670215733,7.619583367020823,,,,,,,,,,,,,,,,,,,,,,,f,1,0.772945204982534,f,1,3.9648254530038685,,,,None,None,,,,,,,,,,,,,,,,,,,,,,,,,10,001,1,2,2018_Oct_04_1542,Dissertation,59.88922004428605,
,,1,,,Verdadero,Falso,f,A,congruent_right,El reloj de mi mamá tiene diamantes pero le queda muy bien,0,0,0,0,j,0,223,Mi madre tiene un reloj bonito.,,,,,,,,,,,,,,,,,,,,,,,,,0,0,0,0,0,33,33,52,,,,,,,,,,,,,,,,,,0.5513447370030917,0.5407333149923943,0.5513447370030917,0.40042490302585065,0.37255995703162625,0.9517696400289424,0.7680298169725575,0.7390750850318,1.7197994570014998,0.468645605025813,0.43479118001414463,2.188445062027313,0.41773458797251806,0.3886665200116113,2.606179649999831,0.3182742799981497,0.2888700679759495,2.9244539299979806,0.5156642679939978,0.4856919100275263,3.4401181979919784,1.071224384009838,1.0399721120484173,4.5113425820018165,0.5352400300325826,0.5064657520269975,5.046582612034399,0.835306282970123,0.8022861899808049,5.881888895004522,0.5182547050062567,0.4886569879599847,6.400143600010779,0.48395941202761605,0.4546987800276838,6.884103012038395,,,,,,,,,,,,,,j,1,0.4397593699977733,f,1,2.0930805830284953,,,,None,None,,,,,,,,,,,,,,,,,,,,,,,,,10,001,1,2,2018_Oct_04_1542,Dissertation,59.88922004428605,
,,1,,,Verdadero,Falso,f,A,congruent_left,Jimena duerme bien en la cama en su cuarto,0,0,0,0,f,0,205,La cama de Jimena es cómoda.,,,,,,,,,,,,,,,,,,,,,,,,,0,0,0,0,0,34,34,34,,,,,,,,,,,,,,,,,,0.633903392998036,0.6202776599675417,0.633903392998036,0.6018192319897935,0.5688345029484481,1.2357226249878295,1.9050592599669471,1.8764993650256656,3.1407818849547766,0.8019287000061013,0.7699821700225584,3.942710584960878,0.7687218100181781,0.7395732200238854,4.711432394979056,0.4351078100153245,0.4068406349979341,5.1465402049943805,1.1029490299988538,1.0743128100293688,6.249489234993234,0.6841990780085325,0.6555064170388505,6.933688313001767,0.5522623299621046,0.5230415550176986,7.485950642963871,,,,,,,,,,,,,,,,,,,,,,,f,1,0.6735575519851409,f,1,2.0262916100327857,,,,None,None,,,,,,,,,,,,,,,,,,,,,,,,,10,001,1,2,2018_Oct_04_1542,Dissertation,59.88922004428605,
,,1,,,Verdadero,Falso,f,A,congruent_left,a,0,0,0,0,f,0,307,a,,,,,,,,,,,,,,,,,,,,,,,,,0,0,0,0,0,35,35,66,,,,,,,,,,,,,,,,,,,,,,,,,,,,,,,,,,,,,,,,,,,,,,,,,,,,,,,,,,,,,,,,,,,f,1,0.5396288100164384,None,0,,,,,None,None,,,,,,,,,,,,,,,,,,,,,,,,,10,001,1,2,2018_Oct_04_1542,Dissertation,59.88922004428605,
,,1,,,Verdadero,Falso,f,A,congruent_right,a,0,0,0,0,j,0,308,a,,,,,,,,,,,,,,,,,,,,,,,,,0,0,0,0,0,36,36,67,,,,,,,,,,,,,,,,,,,,,,,,,,,,,,,,,,,,,,,,,,,,,,,,,,,,,,,,,,,,,,,,,,,j,1,0.7567886350443587,None,0,,,,,None,None,,,,,,,,,,,,,,,,,,,,,,,,,10,001,1,2,2018_Oct_04_1542,Dissertation,59.88922004428605,
,,0,,,Verdadero,Falso,f,A,incongruent_right,Cuando el escultor volvió la obra estaba instalada en el parque,0,1,1,0,j,0,129,La obra era para el público.,,,,,,,,,,,,,,,,,,,,,,,,,0,0,0,0,0,37,37,24,,,,,,,,,,,,,,,,,,0.9851846619858406,0.9690810299944133,0.9851846619858406,0.4004980929894373,0.37117061798926443,1.385682754975278,0.2852477600099519,0.25601767998887226,1.6709305149852298,0.249821970006451,0.20454231201438233,1.9207524849916808,0.6849050999735482,0.655553272983525,2.605657584965229,0.4350788919837214,0.4019042500294745,3.0407364769489504,0.6004881330300122,0.5714556279708631,3.6412246099789627,0.46824573702178895,0.437959584989585,4.109470347000752,1.3708252199576236,1.3415903050336055,5.480295566958375,0.7857887980062515,0.7566430870210752,6.266084364964627,0.48451725201448426,0.43951888498850167,6.750601616979111,,,,,,,,,,,,,,,,,j,1,0.8032132699736394,f,1,4.934172437991947,,,,None,space,,,,,,,,,,,,,,,,,,,,,,10.081485470000189,,,10,001,1,2,2018_Oct_04_1542,Dissertation,59.88922004428605,
,,1,,,Verdadero,Falso,f,A,congruent_left,a,0,0,0,0,f,0,303,a,,,,,,,,,,,,,,,,,,,,,,,,,0,0,0,0,0,38,38,62,,,,,,,,,,,,,,,,,,,,,,,,,,,,,,,,,,,,,,,,,,,,,,,,,,,,,,,,,,,,,,,,,,,f,1,0.4562675330089405,None,0,,,,,None,None,,,,,,,,,,,,,,,,,,,,,,,,,10,001,1,2,2018_Oct_04_1542,Dissertation,59.88922004428605,
,,0,,,Verdadero,Falso,f,A,incongruent_left,Este año cuando se reunieron el grito sonó por todo el vecindario,0,1,1,0,f,0,124,Hicieron un escándalo cuando se vieron.,,,,,,,,,,,,,,,,,,,,,,,,,0,0,0,0,0,39,39,21,,,,,,,,,,,,,,,,,,1.3203534500207752,1.3047430610167794,1.3203534500207752,0.5175753829535097,0.4887114499579184,1.8379288329742849,0.417075437027961,0.3849366119829938,2.255004270002246,0.9523256979882717,0.9222607120173052,3.2073299679905176,0.5355007519829087,0.5054923829738982,3.7428307199734263,0.3346057379967533,0.301307049987372,4.07743645797018,0.20041347004007548,0.17107037297682837,4.277849928010255,1.2532119899988174,1.2248218749882653,5.5310619180090725,0.6018505819956772,0.5556812530267052,6.13291250000475,0.8848272580071352,0.8391319650108926,7.017739758011885,1.0697388019762002,1.040111842972692,8.087478559988085,0.4510250950115733,0.42169305798597634,8.538503654999658,,,,,,,,,,,,,,f,1,0.5552641950198449,j,0,7.070309485017788,,,,None,None,,,,,,,,,,,,,,,,,,,,,,,,,10,001,1,2,2018_Oct_04_1542,Dissertation,59.88922004428605,
,,1,,,Verdadero,Falso,j,A,congruent_right,Jorge puso las monedas que traía en su abrigo en la mesa cuando regresó a su casa,1,1,0,0,j,0,12,Las monedas de Jorge están en su abrigo.,,,,,,,,,,,,,,,,,,,,,,,,,0,0,0,0,0,40,40,11,,,,,,,,,,,,,,,,,,1.41863682505209,1.4022368759615347,1.41863682505209,0.7356827749754302,0.7016792749636807,2.15431960002752,0.6017767430166714,0.5720804730080999,2.7560963430441916,0.5849476619623601,0.5548080850276165,3.3410440050065517,0.6007079679984599,0.5546463149948977,3.9417519730050117,0.501594677043613,0.4719629529863596,4.443346650048625,0.8030490399687551,0.7728346969815902,5.24639569001738,1.1697503050090745,1.1244025779888034,6.416145995026454,0.38379022298613563,0.35576161002973095,6.79993621801259,0.652350832009688,0.6057491329847835,7.452287050022278,0.467580922995694,0.4228461000020616,7.919867973017972,0.6841474800021388,0.6568535550031811,8.60401545302011,0.5513823950313963,0.5070033280062489,9.155397848051507,,,,1.9570409169537015,1.9266899929498322,11.112438765005209,,,,,j,1,0.9920675489702262,j,1,6.003527905035298,,,,None,None,1.36935978801921,1.3412073900108226,12.481798553024419,0.5521231319871731,0.5193582230131142,13.033921685011592,0.3511759979883209,0.3224327599746175,13.385097682999913,,,,,,,,,,,,,,,,10,001,1,2,2018_Oct_04_1542,Dissertation,59.88922004428605,
,,1,,,Verdadero,Falso,f,A,congruent_left,a,0,0,0,0,f,0,311,a,,,,,,,,,,,,,,,,,,,,,,,,,0,0,0,0,0,41,41,70,,,,,,,,,,,,,,,,,,,,,,,,,,,,,,,,,,,,,,,,,,,,,,,,,,,,,,,,,,,,,,,,,,,f,1,0.4562815050012432,None,0,,,,,None,None,,,,,,,,,,,,,,,,,,,,,,,,,10,001,1,2,2018_Oct_04_1542,Dissertation,59.88922004428605,
,,0,,,Verdadero,Falso,j,A,single_right,El señor gordo tomó un café solo,0,0,0,1,j,0,228,El señor estaba solo cuando bebió el café.,,,,,,,,,,,,,,,,,,,,,,,,,0,0,0,0,0,42,42,57,,,,,,,,,,,,,,,,,,0.8177924250485376,0.807768754020799,0.8177924250485376,0.4504571099532768,0.4226138750091195,1.2682495350018144,0.3680515050073154,0.33561447804095224,1.6363010400091298,0.5678670580382459,0.5383213120512664,2.2041680980473757,0.8360876250080764,0.8027378849801607,3.040255723055452,0.40121970197651535,0.3721109729958698,3.4414754250319675,0.5501226710039191,0.5169719289988279,3.9915980960358866,,,,,,,,,,,,,,,,,,,,,,,,,,,,,j,1,0.36937592801405117,f,0,3.5808164550107904,,,,None,None,,,,,,,,,,,,,,,,,,,,,,,,,10,001,1,2,2018_Oct_04_1542,Dissertation,59.88922004428605,
,,0,,,Verdadero,Falso,f,A,incongruent_right,La madre metió los vasos sucios que su hija dejó en el lavaplatos cuando acabó de comer,0,1,1,0,j,0,137,La madre limpió después de la comida.,,,,,,,,,,,,,,,,,,,,,,,,,0,0,0,0,0,43,43,28,,,,,,,,,,,,,,,,,,0.7342186729656532,0.7180794720188715,0.7342186729656532,0.36800294200656936,0.33861122000962496,1.1022216149722226,0.23406961798900738,0.20484172296710312,1.33629123296123,0.30038260703440756,0.2723943499731831,1.6366738399956375,2.089301864965819,2.0612577369902283,3.7259757049614564,0.43445323302876204,0.4029779559932649,4.160428937990218,1.0187460500164889,0.9895763149834238,5.179174988006707,0.5515247719595209,0.5218500720220618,5.730699759966228,0.9530092049972154,0.9234172979486175,6.683708964963444,0.46781009499682114,0.43568035995122045,7.151519059960265,0.43442160804988816,0.40519781003240496,7.585940668010153,0.43449443200370297,0.4082522949902341,8.020435100013856,0.3510165649931878,0.30650343297747895,8.371451665007044,,,,0.8357114599784836,0.7894385399995372,9.207163124985527,,,,,j,1,0.6067665999871679,f,1,4.01230195799144,,,,None,None,1.1863814429962076,1.1546274599968456,10.393544567981735,0.9517099049990065,0.9231268300209194,11.345254472980741,0.3849855320295319,0.3389147220295854,11.730240005010273,,,,,,,,,,,,,,,,10,001,1,2,2018_Oct_04_1542,Dissertation,59.88922004428605,
,,1,,,Verdadero,Falso,f,A,congruent_right,Cuando era niña Inés saltaba la cuerda mucho ,0,0,0,0,j,0,211,Inés sabe saltar la cuerda.,,,,,,,,,,,,,,,,,,,,,,,,,0,0,0,0,0,44,44,40,,,,,,,,,,,,,,,,,,0.9682157770148478,0.9581858949968591,0.9682157770148478,0.43476092303171754,0.4055688449880108,1.4029767000465654,0.40068142500240356,0.37200525001389906,1.803658125048969,0.5019214699859731,0.47304580302443355,2.305579595034942,1.0027899849810638,0.9698150799958967,3.308369580016006,0.9355712450342253,0.9073868450359441,4.243940825050231,0.46740330499596894,0.4388010429684073,4.7113441300462,0.3851392899523489,0.3518492150469683,5.096483419998549,,,,,,,,,,,,,,,,,,,,,,,,,,j,1,0.41817158000776544,f,1,1.7085660099983215,,,,None,None,,,,,,,,,,,,,,,,,,,,,,,,,10,001,1,2,2018_Oct_04_1542,Dissertation,59.88922004428605,
,,0,,,Verdadero,Falso,f,A,single_right,a,0,0,0,1,j,0,306,a,,,,,,,,,,,,,,,,,,,,,,,,,0,0,0,0,0,45,45,65,,,,,,,,,,,,,,,,,,,,,,,,,,,,,,,,,,,,,,,,,,,,,,,,,,,,,,,,,,,,,,,,,,,j,1,0.7916958270361647,None,0,,,,,None,None,,,,,,,,,,,,,,,,,,,,,,,,,10,001,1,2,2018_Oct_04_1542,Dissertation,59.88922004428605,
,,1,,,Verdadero,Falso,f,A,congruent_left,El pescado está listo para comer,0,0,0,0,f,0,229,Vamos a comer pescado.,,,,,,,,,,,,,,,,,,,,,,,,,0,0,0,0,0,46,46,58,,,,,,,,,,,,,,,,,,0.8004755530273542,0.7923708420130424,0.8004755530273542,0.3347481419914402,0.3045797329978086,1.1352236950187944,0.36811821500305086,0.33841668197419494,1.5033419100218453,1.186412075010594,1.1539619020186365,2.6897539850324392,0.48401845997432247,0.4555432730121538,3.1737724450067617,0.6352944480022416,0.6048636100022122,3.8090668930090033,,,,,,,,,,,,,,,,,,,,,,,,,,,,,,,,f,1,0.534974064968992,f,1,3.59699351497693,,,,None,None,,,,,,,,,,,,,,,,,,,,,,,,,10,001,1,2,2018_Oct_04_1542,Dissertation,59.88922004428605,
,,0,,,Verdadero,Falso,f,A,single_left,a,0,0,0,1,f,0,305,a,,,,,,,,,,,,,,,,,,,,,,,,,0,0,0,0,0,47,47,64,,,,,,,,,,,,,,,,,,,,,,,,,,,,,,,,,,,,,,,,,,,,,,,,,,,,,,,,,,,,,,,,,,,f,1,0.6394090669928119,None,0,,,,,None,None,,,,,,,,,,,,,,,,,,,,,,,,,10,001,1,2,2018_Oct_04_1542,Dissertation,59.88922004428605,
,,0,,,Verdadero,Falso,j,A,single_right,Cuando Dora ganó la lotería se compró un reloj de diamantes,0,0,0,1,j,0,216,Dora ahorró todo el dinero que ganó. ,,,,,,,,,,,,,,,,,,,,,,,,,0,0,0,0,0,48,48,45,,,,,,,,,,,,,,,,,,0.7344982419745065,0.7241341050248593,0.7344982419745065,0.31569754402153194,0.28748485300457105,1.0501957859960385,0.7013965650112368,0.6521707049687393,1.7515923510072753,1.2555759839597158,1.225859791971743,3.007168334966991,1.052700762054883,1.0238702800124884,4.059869097021874,0.7683122899616137,0.7388141230330803,4.828181386983488,0.43515356502030045,0.40554283797973767,5.263334952003788,0.4163341380190104,0.37072138499934226,5.679669090022799,0.3335463329567574,0.3025079700164497,6.013215422979556,0.36893403402063996,0.33431430702330545,6.382149457000196,0.40133646997855976,0.37037836702074856,6.783485926978756,,,,,,,,,,,,,,,,,j,1,0.45501038298243657,j,1,4.565627545001917,,,,None,None,,,,,,,,,,,,,,,,,,,,,,,,,10,001,1,2,2018_Oct_04_1542,Dissertation,59.88922004428605,
,,1,,,Verdadero,Falso,f,A,congruent_left,La profesora dejó la galleta que compró en el mercado en su cartera durante la clase,1,1,0,0,f,0,13,La galleta estaba en la cartera durante la clase.,,,,,,,,,,,,,,,,,,,,,,,,,0,0,0,0,0,49,49,12,,,,,,,,,,,,,,,,,,0.5835749699617736,0.5689048640197143,0.5835749699617736,0.2504035950405523,0.22287158202379942,0.8339785650023259,0.21751484996639192,0.1892965770093724,1.0514934149687178,0.7683889670297503,0.7399843150051311,1.8198823819984682,0.9030376099981368,0.874477242003195,2.722919991996605,0.6016068299650215,0.569819588039536,3.3245268219616264,2.205976998026017,2.1775489170104265,5.5305038199876435,1.369843624997884,1.3240744900540449,6.9003474449855275,0.4009179300046526,0.371961523022037,7.30126537499018,0.35088577499845996,0.32194590801373124,7.65215114998864,0.5683395749656484,0.5383988280082121,8.220490724954288,0.43374273704830557,0.4004660349455662,8.654233462002594,0.3187095129978843,0.2883860499714501,8.972942975000478,,,,0.4503607469960116,0.40528685302706435,9.42330372199649,,,,,f,1,0.417638078040909,j,0,7.809756615024526,,,,None,None,1.0871557229547761,1.0540871450211853,10.510459444951266,0.43415913701755926,0.38908096798695624,10.944618581968825,,,,,,,,,,,,,,,,,,,10,001,1,2,2018_Oct_04_1542,Dissertation,59.88922004428605,
,,0,,,Verdadero,Falso,j,A,incongruent_right,Mientras el maestro descansaba el violín resonaba por todo el salón,0,1,1,0,j,0,125,El maestro tocaba el piano.,,,,,,,,,,,,,,,,,,,,,,,,,0,0,0,0,0,50,50,22,,,,,,,,,,,,,,,,,,0.7003563949838281,0.6835481679881923,0.7003563949838281,0.31778991501778364,0.28427886503050104,1.0181463100016117,0.6517915150034241,0.6233919200021774,1.6699378250050358,0.4011331899673678,0.3676805730210617,2.0710710149724036,0.969132830039598,0.9396438369876705,3.0402038450120017,0.5346112949773669,0.5058740800013766,3.5748151399893686,0.9532310329959728,0.9248476949869655,4.528046172985341,1.0355053520179354,1.0080435969866812,5.563551525003277,0.5018973429687321,0.4728831219836138,6.065448867972009,0.31709095201222226,0.27131231199018657,6.382539819984231,0.38437040999997407,0.35588936699787155,6.766910229984205,,,,,,,,,,,,,,,,,j,1,0.9066078320029192,j,1,2.5893021629890427,,,,None,None,,,,,,,,,,,,,,,,,,,,,,,,,10,001,1,2,2018_Oct_04_1542,Dissertation,59.88922004428605,
,,1,,,Verdadero,Falso,j,A,congruent_left,La familia tenía una mesa antigua en el porche de su casa,0,0,0,0,f,0,201,La mesa antigua está en el comedor.,,,,,,,,,,,,,,,,,,,,,,,,,0,0,0,0,0,51,51,30,,,,,,,,,,,,,,,,,,0.6339440050069243,0.622713255987037,0.6339440050069243,0.28464806702686474,0.2551152530359104,0.918592072033789,0.3503629949991591,0.31752579199383035,1.2689550670329481,0.6353453099727631,0.6063433699891903,1.9043003770057112,0.5505803800188005,0.5183678699540906,2.4548807570245117,1.0365060979966074,1.0071425630012527,3.491386855021119,1.2863447950221598,1.2566846900153905,4.777731650043279,0.4182935850112699,0.3891854449757375,5.196025235054549,0.3671172219910659,0.3387694980483502,5.563142457045615,0.41826708998996764,0.38955648796400055,5.981409547035582,0.4170415150001645,0.38441751699429005,6.398451062035747,0.4183886179816909,0.39264893799554557,6.816839680017438,,,,,,,,,,,,,,f,1,0.9565934800193645,j,1,2.7912401399808004,,,,None,None,,,,,,,,,,,,,,,,,,,,,,,,,10,001,1,2,2018_Oct_04_1542,Dissertation,59.88922004428605,
,,0,,,Verdadero,Falso,j,A,incongruent_left,Los alumnos metieron la prueba que la maestra les dio en sus bolsas antes de irse,0,1,1,0,f,0,140,La maestra se quedó con las pruebas.,,,,,,,,,,,,,,,,,,,,,,,,,0,0,0,0,0,52,52,29,,,,,,,,,,,,,,,,,,0.6500544330338016,0.6350220059975982,0.6500544330338016,0.26802233699709177,0.2378172500175424,0.9180767700308934,0.25104744802229106,0.22215266997227445,1.1691242180531844,0.7844419319881126,0.7391639800043777,1.953566150041297,1.3878335529589094,1.3590631400002167,3.3413997030002065,0.7512087070499547,0.7055395249626599,4.092608410050161,1.0694595949607901,1.036998062976636,5.162068005010951,0.5349872229853645,0.5053917079931125,5.697055227996316,0.6690838770009577,0.6403711820021272,6.3661391049972735,0.4176123780198395,0.3684116820222698,6.783751483017113,0.3343491950072348,0.3017560950247571,7.118100678024348,0.4006212549866177,0.37097928300499916,7.518721933010966,0.5520027769962326,0.5191952100140043,8.070724710007198,,,,1.469445203023497,1.4396689239656553,9.540169913030695,,,,,f,1,0.5691699049784802,j,1,3.146342510008253,,,,None,None,0.8031867049867287,0.7695176400011405,10.343356618017424,0.45093975198687986,0.42266728304093704,10.794296370004304,,,,,,,,,,,,,,,,,,,10,001,1,2,2018_Oct_04_1542,Dissertation,59.88922004428605,
,,0,,,Verdadero,Falso,f,A,single_left,Antes de correr su primer maratón María tuvo que correr mucho para practicar,0,0,0,1,f,0,210,María corrió el maratón sin entrenarse.,,,,,,,,,,,,,,,,,,,,,,,,,0,0,0,0,0,53,53,39,,,,,,,,,,,,,,,,,,0.5494323449674994,0.5348453160258941,0.5494323449674994,0.26815734000410885,0.2370224319747649,0.8175896849716082,0.3341849300195463,0.28444856498390436,1.1517746149911545,0.6186475399881601,0.5894196779699996,1.7704221549793147,0.5174875879893079,0.47175230202265084,2.2879097429686226,0.5350629650056362,0.48892715701367706,2.822972707974259,0.6336606629774906,0.6038307289709337,3.4566333709517494,0.46849244402255863,0.4387661700020544,3.925125814974308,0.31750830000964925,0.2897637280402705,4.242634114983957,0.5175493599963374,0.4871799880056642,4.760183474980295,0.7186513880151324,0.6890673910384066,5.478834862995427,0.5181031599640846,0.4732504709973,5.996938022959512,0.5358017460093834,0.4926682290388271,6.532739768968895,,,,,,,,,,,f,1,0.3717922850046307,j,0,3.395661030022893,,,,None,None,,,,,,,,,,,,,,,,,,,,,,,,,10,001,1,2,2018_Oct_04_1542,Dissertation,59.88922004428605,
,,0,,,Verdadero,Falso,j,A,single_left,Ana vació el lavaplatos en la cocina,0,0,0,1,f,0,206,Ana no ayudó con los quehaceres.,,,,,,,,,,,,,,,,,,,,,,,,,0,0,0,0,0,54,54,35,,,,,,,,,,,,,,,,,,0.5826746569946408,0.5699196039931849,0.5826746569946408,0.2845214999979362,0.2378541849902831,0.867196156992577,0.31689028796972707,0.287723098997958,1.184086444962304,0.8693066970445216,0.8445330599788576,2.0533931420068257,0.5353705199668184,0.50884634105023,2.588763661973644,0.6579639140400104,0.6213541730539873,3.2467275760136545,0.6553517199936323,0.6391917779692449,3.9020792960072868,,,,,,,,,,,,,,,,,,,,,,,,,,,,,f,1,0.6020301170065068,j,1,4.11307218397269,,,,None,None,,,,,,,,,,,,,,,,,,,,,,,,,10,001,1,2,2018_Oct_04_1542,Dissertation,59.88922004428605,
,,0,,,Verdadero,Falso,f,A,single_right,Mi hermana guardó en su celular el número del chico guapo,0,0,0,1,j,0,208,A mi hermana le gustaría salir con el chico.,,,,,,,,,,,,,,,,,,,,,,,,,0,0,0,0,0,55,55,37,,,,,,,,,,,,,,,,,,0.63313485897379,0.5916909539955668,0.63313485897379,0.2839119840064086,0.24000919697573408,0.9170468429801986,0.3172479720087722,0.2751061870367266,1.2342948149889708,0.9019965929910541,0.8519846559502184,2.136291407980025,0.4348910750122741,0.40522208501352,2.571182482992299,0.35114147199783474,0.32359605201054364,2.9223239549901336,0.6515879380167462,0.6055313770193607,3.57391189300688,0.5344858349999413,0.48796852998202667,4.108397728006821,0.43427268200321123,0.40409483399707824,4.542670410010032,0.35167317499872297,0.31798907998017967,4.894343585008755,0.4848627309547737,0.45689138903981075,5.379206315963529,,,,,,,,,,,,,,,,,j,1,0.6750244629802182,f,1,3.949512601015158,,,,None,None,,,,,,,,,,,,,,,,,,,,,,,,,10,001,1,2,2018_Oct_04_1542,Dissertation,59.88922004428605,
,,0,,,Verdadero,Falso,f,A,single_left,a,0,0,0,1,f,0,309,a,,,,,,,,,,,,,,,,,,,,,,,,,0,0,0,0,0,56,56,68,,,,,,,,,,,,,,,,,,,,,,,,,,,,,,,,,,,,,,,,,,,,,,,,,,,,,,,,,,,,,,,,,,,f,1,0.43727054295595735,None,0,,,,,None,None,,,,,,,,,,,,,,,,,,,,,,,,,10,001,1,2,2018_Oct_04_1542,Dissertation,59.88922004428605,
,,0,,,Verdadero,Falso,j,A,incongruent_right,Paco dejó los pantalones que compró en la tienda en su cuarto cuando volvió,1,1,1,0,j,1,11,A Paco los pantalones se le quedaron en la tienda.,,,,,,,,,,,,,,,,,,,,,,,,,0,0,0,0,0,57,57,10,,,,,,,,,,,,,,,,,,0.5331255969940685,0.5139824990183115,0.5331255969940685,0.3018057629815303,0.2693625949905254,0.8349313599755988,0.9359790820162743,0.9075421270099469,1.770910441991873,0.7162120940047316,0.6668914209585637,2.4871225359966047,1.3369520420092158,1.3061288699973375,3.8240745780058205,0.4355439689825289,0.40703414799645543,4.259618546988349,1.0196894929977134,0.9917219249764457,5.279308039986063,0.5686177850002423,0.5389850250212476,5.847925824986305,0.39886522298911586,0.3678516509826295,6.246791047975421,0.4201825869968161,0.385012420010753,6.666973634972237,0.48429939203197137,0.4556182969827205,7.151273027004208,0.5685777479666285,0.5402506199898198,7.719850774970837,0.568349905021023,0.5370873319916427,8.28820067999186,,,,0.635348901967518,0.6025500049581751,8.923549581959378,,,,,j,1,0.4869645500439219,f,0,6.369138852984179,,,,None,None,,,,,,,,,,,,,,,,,,,,,,,,,10,001,1,2,2018_Oct_04_1542,Dissertation,59.88922004428605,
,,0,,,Verdadero,Falso,j,A,incongruent_left,El empleado guardó los archivos que recibió en una carpeta después de revisarlos,0,1,1,0,f,0,132,El empleado tiró los documentos.,,,,,,,,,,,,,,,,,,,,,,,,,0,0,0,0,0,58,58,25,,,,,,,,,,,,,,,,,,0.5492896640207618,0.5300359749817289,0.5492896640207618,0.3183391880011186,0.2689739540219307,0.8676288520218804,0.30132355802925304,0.27203825500328094,1.1689524100511335,1.5872072399943136,1.5581614979892038,2.756159650045447,1.1514041550108232,1.120643383008428,3.90756380505627,1.522322409960907,1.4922878610086627,5.429886215017177,0.45104432001244277,0.41797728301025927,5.88093053502962,0.635596384992823,0.6064109230064787,6.516526920022443,0.4846714269951917,0.4559833250241354,7.001198347017635,0.6165830899844877,0.5864664310356602,7.617781437002122,1.47066235501552,1.441574870957993,9.088443792017642,1.5555868750088848,1.527641847031191,10.644030667026527,0.8186597329913639,0.7889521750039421,11.462690400017891,,,,,,,,,,,f,1,0.5871187120210379,j,1,5.483497240988072,,,,None,None,,,,,,,,,,,,,,,,,,,,,,,,,10,001,1,2,2018_Oct_04_1542,Dissertation,59.88922004428605,
,,0,,,Verdadero,Falso,j,A,incongruent_right,María acomodó las revistas que Gabriela dejó bajo la cama en el librero cuando las encontró,1,1,1,0,j,1,15,Las revistas de Gabriela están escondidas bajo la cama.,,,,,,,,,,,,,,,,,,,,,,,,,0,0,0,0,0,59,59,14,,,,,,,,,,,,,,,,,,0.6342474200064316,0.6184587189927697,0.6342474200064316,0.2673156469827518,0.2211698970058933,0.9015630669891834,0.2988970550359227,0.2694042020011693,1.200460122025106,0.8376287399441935,0.8045476999832317,2.0380888619692996,0.43305838404921815,0.4032888349611312,2.4711472460185178,0.5528770289965905,0.523359349987004,3.0240242750151083,0.6013155200053006,0.5552877520094626,3.625339795020409,0.46845610497985035,0.43992499297019094,4.093795900000259,1.1190395699813962,1.0738043619785458,5.2128354699816555,0.48456837999401614,0.45614391996059567,5.697403849975672,0.6004603520268574,0.570779790985398,6.297864202002529,1.035461204010062,1.0036313449963927,7.333325406012591,0.4011886669904925,0.3529248920385726,7.7345140730030835,,,,0.6176031790091656,0.5867986200028099,8.352117252012249,,,,,j,1,0.6251910520368256,f,0,5.701291748962831,,,,None,None,1.8892810139805079,1.8556992349913344,10.241398265992757,0.4693745810072869,0.43516569200437516,10.710772847000044,,,,,,,,,,,,,,,,,,,10,001,1,2,2018_Oct_04_1542,Dissertation,59.88922004428605,
,,1,,,Verdadero,Falso,f,A,congruent_left,El mesero vació el vino que los clientes dejaron en la mesa en el fregadero después de que se fueron,1,1,0,0,f,0,17,Los clientes se fueron sin tomar todo el vino. ,,,,,,,,,,,,,,,,,,,,,,,,,0,0,0,0,0,60,60,16,,,,,,,,,,,,,,,,,,0.8685565720079467,0.8428273580502719,0.8685565720079467,0.35194215801311657,0.32312532502692193,1.2204987300210632,0.7848795449826866,0.7392643420025706,2.00537827500375,1.3037330569932237,1.2764465380460024,3.3091113319969736,1.2701217699795961,1.2419205919723026,4.57923310197657,1.5874304799945094,1.5415834200102836,6.166663581971079,0.4508570400066674,0.4050551499822177,6.6175206219777465,0.3840383130009286,0.35506954696029425,7.001558934978675,0.4850745950243436,0.45759452297352254,7.486633530003019,0.4670138760120608,0.4381249279831536,7.9536474060150795,0.9510937070008367,0.9202219289727509,8.904741113015916,0.5881236239802092,0.5564358099945821,9.492864736996125,0.36587089800741524,0.3390668450156227,9.85873563500354,,,,0.45073203096399084,0.4044446140178479,10.309467665967532,,,,,f,1,0.8263071759720333,f,1,4.8123425979865715,,,,None,None,0.33431673602899536,0.286508037999738,10.643784401996527,0.36723530798917636,0.3381634599645622,11.011019709985703,1.3530771150253713,1.3219552570371889,12.364096825011075,0.43717503000516444,0.40263221599161625,12.801271855016239,0.348920057003852,0.32007589598651975,13.150191912020091,0.5034106249804609,0.45718713698443025,13.653602537000552,,,,,,,10,001,1,2,2018_Oct_04_1542,Dissertation,59.88922004428605,
,,0,,,Verdadero,Falso,f,A,incongruent_right,Jaime metió el chaleco que su pareja dejó en el clóset cuando regresaron,0,1,1,0,j,0,133,La pareja de Jaime no colgó su chaleco cuando volvió. ,,,,,,,,,,,,,,,,,,,,,,,,,0,0,0,0,0,61,61,26,,,,,,,,,,,,,,,,,,0.700496541976463,0.6787086579715833,0.700496541976463,0.30100336798932403,0.2716883569955826,1.001499909965787,0.752448647050187,0.7228432729607448,1.753948557015974,1.0687748699565418,1.036610933020711,2.822723426972516,0.8526158300228417,0.8247877979883924,3.6753392569953576,0.53534998500254,0.5065961070358753,4.210689241997898,2.172320550016593,2.1433683469658718,6.383009792014491,2.388102237950079,2.3595907110138796,8.77111202996457,0.3522229000227526,0.3238623589859344,9.123334929987323,0.7859517220058478,0.7528665999998339,9.90928665199317,0.3005754050100222,0.2720198699971661,10.209862057003193,0.6512890449957922,0.6059436770156026,10.861151101998985,0.6690259400056675,0.6394984970102087,11.530177042004652,,,,,,,,,,,j,1,0.8580298050073907,f,1,5.649110127997119,,,,None,None,,,,,,,,,,,,,,,,,,,,,,,,,10,001,1,2,2018_Oct_04_1542,Dissertation,59.88922004428605,
,,0,,,Verdadero,Falso,f,A,single_left,Mientras la esposa toca el piano el esposo lava los platos,0,0,0,1,f,0,214,La esposa sabe tocar un instrumento.,,,,,,,,,,,,,,,,,,,,,,,,,0,0,0,0,0,62,62,43,,,,,,,,,,,,,,,,,,0.6176173799904063,0.6057007599738427,0.6176173799904063,0.3335733499843627,0.3046704370062798,0.9511907299747691,0.3680286249727942,0.3348506979527883,1.3192193549475633,0.31787482503568754,0.2850745319738053,1.6370941799832508,0.46772677497938275,0.43562658003065735,2.1048209549626336,0.46794825000688434,0.43985637999139726,2.572769204969518,0.5512187230051495,0.5211792950285599,3.1239879279746674,0.48506203200668097,0.45540255500236526,3.6090499599813484,0.3679503800231032,0.34378592198481783,3.9770003400044516,0.6346044079982676,0.5856874830205925,4.611604748002719,0.48406872496707365,0.45467098796507344,5.095673472969793,,,,,,,,,,,,,,,,,f,1,0.6715075600077398,f,1,5.603976346959826,,,,None,None,,,,,,,,,,,,,,,,,,,,,,,,,10,001,1,2,2018_Oct_04_1542,Dissertation,59.88922004428605,
,,0,,,Verdadero,Falso,j,A,incongruent_left,Cuando la participante se rindió la respuesta le pareció obvia,0,1,1,0,f,0,128,La participante adivinó la respuesta correcta.,,,,,,,,,,,,,,,,,,,,,,,,,0,0,0,0,0,63,63,23,,,,,,,,,,,,,,,,,,0.5668768719770014,0.5548605670337565,0.5668768719770014,0.30072728998493403,0.27171954995719716,0.8676041619619355,0.36824360000900924,0.33880537503864616,1.2358477619709447,0.5344695600215346,0.5052941749454476,1.7703173219924793,0.5345507229794748,0.5058672369923443,2.304868044971954,2.1564908350119367,2.123762989998795,4.461358879983891,0.6350079199764878,0.6057443419704214,5.096366799960379,0.9358460869989358,0.8862791499705054,6.032212886959314,0.618139335012529,0.5892088900436647,6.650352221971843,1.6206153280218132,1.5916781999985687,8.270967549993657,,,,,,,,,,,,,,,,,,,,f,1,0.6561512320186011,f,0,4.900668385031167,,,,None,None,,,,,,,,,,,,,,,,,,,,,,,,,10,001,1,2,2018_Oct_04_1542,Dissertation,59.88922004428605,
,,1,,,Verdadero,Falso,j,A,congruent_right,El pastel en el refrigerador es para el cumpleaños de Tomás,0,0,0,0,j,0,207,Tomás no cumple años pronto.,,,,,,,,,,,,,,,,,,,,,,,,,0,0,0,0,0,64,64,36,,,,,,,,,,,,,,,,,,0.5675052049919032,0.5556274030241184,0.5675052049919032,0.28351420001126826,0.2549686069833115,0.8510194050031714,0.38520280801458284,0.3554072600090876,1.2362222130177543,1.0005485150031745,0.9703606060356833,2.236770728020929,0.36905709496932104,0.33790179999778047,2.60582782299025,3.0413914900273085,3.012271267012693,5.647219313017558,0.4854316349956207,0.45586210303008556,6.132650948013179,0.3162814669776708,0.288613099954091,6.44893241499085,0.31768253503832966,0.27087821799796075,6.7666149500291795,0.3843832850106992,0.3546825150260702,7.150998235039879,0.3845757549861446,0.35456366499420255,7.535573990026023,,,,,,,,,,,,,,,,,j,1,0.7396590079879388,j,1,3.2975937919691205,,,,None,None,,,,,,,,,,,,,,,,,,,,,,,,,10,001,1,2,2018_Oct_04_1542,Dissertation,59.88922004428605,
,,0,,,Verdadero,Falso,f,A,incongruent_right,El mecánico arregló el carro rápido,0,0,1,0,j,0,227,El mécanico trabaja de una manera eficiente.,,,,,,,,,,,,,,,,,,,,,,,,,0,0,0,0,0,65,65,56,,,,,,,,,,,,,,,,,,0.5844252250390127,0.5755411139689386,0.5844252250390127,0.2998417569906451,0.27213102497626096,0.8842669820296578,0.5348563179722987,0.5055796369560994,1.4191233000019565,0.38419955503195524,0.3551845669862814,1.8033228550339118,0.5182233219966292,0.4882025679689832,2.321546177030541,0.40066758496686816,0.3670355420326814,2.722213761997409,,,,,,,,,,,,,,,,,,,,,,,,,,,,,,,,j,1,1.0071324079763144,f,1,2.37421339697903,,,,None,None,,,,,,,,,,,,,,,,,,,,,,,,,10,001,1,2,2018_Oct_04_1542,Dissertation,59.88922004428605,
,,0,,,Verdadero,Falso,j,A,single_right,Las flores en mi apartamento hacen que la sala brille,0,0,0,1,j,0,224,No tengo plantas en mi apartamento por mis alergias.,,,,,,,,,,,,,,,,,,,,,,,,,0,0,0,0,0,66,66,53,,,,,,,,,,,,,,,,,,0.5506219700328074,0.5390434850123711,0.5506219700328074,0.3004007379640825,0.27190205501392484,0.85102270799689,0.48498179198941216,0.4519453049870208,1.336004499986302,0.3009052000124939,0.268285560014192,1.636909699998796,0.2837934300187044,0.2512130480026826,1.9207031300175004,0.45163723500445485,0.4185955299763009,2.372340365021955,0.46718256297754124,0.4382962249801494,2.8395229279994965,0.9532706619938836,0.9237702200189233,3.79279358999338,0.5179752830299549,0.4717646900098771,4.310768873023335,0.7686809349688701,0.7394549649907276,5.079449807992205,,,,,,,,,,,,,,,,,,,,j,1,0.722986173001118,j,1,3.129250329977367,,,,None,None,,,,,,,,,,,,,,,,,,,,,,,,,10,001,1,2,2018_Oct_04_1542,Dissertation,59.88922004428605,
,,0,,,Verdadero,Falso,j,A,incongruent_right,Mientras el padre leía la biblia antigua se partió en dos ,1,1,1,0,j,1,7,La biblia se quedó intacta.,,,,,,,,,,,,,,,,,,,,,,,,,0,0,0,0,0,67,67,6,,,,,,,,,,,,,,,,,,0.7007898449664935,0.689255281991791,0.7007898449664935,0.41855927504366264,0.38830910297110677,1.1193491200101562,0.4008386129862629,0.3551938870223239,1.520187732996419,0.5340749470051378,0.5053138100192882,2.054262680001557,0.9366669930168428,0.9077381680253893,2.9909296730183996,0.41727866197470576,0.3890658849850297,3.4082083349931054,0.5680429629865102,0.538459055009298,3.9762512979796156,1.2536453619832173,1.2247325869975612,5.229896659962833,0.5012126030051149,0.4721209700219333,5.731109262967948,0.7515721819945611,0.7227030019857921,6.482681444962509,0.6022665880154818,0.5725398199865595,7.084948032977991,,,,,,,,,,,,,,,,,j,1,0.8599807739956304,j,1,2.1592979929991998,,,,None,None,,,,,,,,,,,,,,,,,,,,,,,,,10,001,1,2,2018_Oct_04_1542,Dissertation,59.88922004428605,
,,0,,,Verdadero,Falso,j,A,incongruent_left,Mi mamá guardó la escultura que hizo en la clase en su mesa de trabajo,1,1,1,0,f,1,14,La escultura está en mi estudio de arte.,,,,,,,,,,,,,,,,,,,,,,,,,0,0,0,0,0,68,68,13,,,,,,,,,,,,,,,,,,0.634380312054418,0.6211991700110957,0.634380312054418,0.40075747499940917,0.3510311619611457,1.0351377870538272,0.4012849979917519,0.37223937298404053,1.436422785045579,0.7518742199754342,0.7062854099785909,2.1882970050210133,0.8350489920121618,0.805859989952296,3.023345997033175,0.7528320499695837,0.721916752983816,3.776178047002759,0.6181456850026734,0.5853001400246285,4.394323732005432,1.0527500730240718,1.0232245279476047,5.447073805029504,0.7022526370128617,0.6560186080168933,6.149326442042366,0.9854709599749185,0.9569097069907002,7.134797402017284,0.36804810003377497,0.31801708199782297,7.502845502051059,0.36725603794911876,0.33943826699396595,7.870101540000178,0.38482998200925067,0.35608701000455767,8.254931522009429,,,,0.3836288280435838,0.33411319501465186,8.638560350053012,,,,,f,1,0.6056612500105985,j,1,3.195670040033292,,,,None,None,0.43519456998910755,0.40641592600150034,9.07375492004212,,,,,,,,,,,,,,,,,,,,,,10,001,1,2,2018_Oct_04_1542,Dissertation,59.88922004428605,
,,1,,,Verdadero,Falso,f,A,congruent_right,a,0,0,0,0,j,0,312,a,,,,,,,,,,,,,,,,,,,,,,,,,0,0,0,0,0,69,69,71,,,,,,,,,,,,,,,,,,,,,,,,,,,,,,,,,,,,,,,,,,,,,,,,,,,,,,,,,,,,,,,,,,,j,1,0.6400019369903021,None,0,,,,,None,None,,,,,,,,,,,,,,,,,,,,,,,,,10,001,1,2,2018_Oct_04_1542,Dissertation,59.88922004428605,
,,0,,,Verdadero,Falso,f,A,single_right,a,0,0,0,1,j,0,302,a,,,,,,,,,,,,,,,,,,,,,,,,,0,0,0,0,0,70,70,61,,,,,,,,,,,,,,,,,,,,,,,,,,,,,,,,,,,,,,,,,,,,,,,,,,,,,,,,,,,,,,,,,,,j,1,0.48862828296842054,None,0,,,,,None,None,,,,,,,,,,,,,,,,,,,,,,,,,10,001,1,2,2018_Oct_04_1542,Dissertation,59.88922004428605,
,,1,,,Verdadero,Falso,f,A,congruent_left,La computadora de Jessica falla con frecuencia,0,0,0,0,f,0,217,Jessica necesita consultar con un técnico.,,,,,,,,,,,,,,,,,,,,,,,,,0,0,0,0,0,71,71,46,,,,,,,,,,,,,,,,,,0.5499691620352678,0.5362107299733907,0.5499691620352678,0.3347563599818386,0.305278605024796,0.8847255220171064,0.4505461879889481,0.42196263797814026,1.3352717100060545,0.5682947420282289,0.5376400949899107,1.9035664520342834,0.468560189998243,0.43899168499046937,2.3721266420325264,1.2032123529934324,1.1751378399785608,3.575338995025959,1.470644184970297,1.442510817956645,5.045983179996256,,,,,,,,,,,,,,,,,,,,,,,,,,,,,f,1,0.5208056299597956,f,1,2.323103940987494,,,,None,None,,,,,,,,,,,,,,,,,,,,,,,,,10,001,1,2,2018_Oct_04_1542,Dissertation,59.88922004428605,
,,0,,,Verdadero,Falso,j,A,incongruent_right,Siempre que mi hermana maneja el carro suena raro ,1,1,1,0,j,1,3,El carro está en una condición perfecta.,,,,,,,,,,,,,,,,,,,,,,,,,0,0,0,0,0,72,72,2,,,,,,,,,,,,,,,,,,0.5671309979516082,0.5566058440017514,0.5671309979516082,0.4511970770545304,0.4220050600124523,1.0183280750061385,0.684917107981164,0.6558133329963312,1.7032451829873025,0.8688353049801663,0.8402963299886324,2.572080487967469,0.6526722370181233,0.6231123820180073,3.224752724985592,1.3373378079850227,1.3088386119925417,4.562090532970615,0.783916866988875,0.7518105479539372,5.34600739995949,0.7696843949961476,0.7438182670157403,6.115691794955637,1.4699004300055094,1.4246093020192347,7.585592224961147,,,,,,,,,,,,,,,,,,,,,,,j,1,0.5561922049964778,f,0,3.27563991304487,,,,None,None,,,,,,,,,,,,,,,,,,,,,,,,,10,001,1,2,2018_Oct_04_1542,Dissertation,59.88922004428605,
,,1,,,Verdadero,Falso,f,A,congruent_right,Los trabajadores colocaron los avisos que su jefe les dejó en la carpeta en la puerta de la oficina,1,1,0,0,j,0,20,Los avisos están colgados en la puerta.,,,,,,,,,,,,,,,,,,,,,,,,,0,0,0,0,0,73,73,19,,,,,,,,,,,,,,,,,,0.5841106050065719,0.5677733540069312,0.5841106050065719,0.36726296704728156,0.3386851170216687,0.9513735720538534,1.219745209964458,1.190411799994763,2.1711187820183113,0.43530214799102396,0.4022504580207169,2.6064209300093353,0.7181244569947012,0.6901549380272627,3.3245453870040365,1.3198558780131862,1.2699457650305703,4.644401265017223,0.7361652569961734,0.7064285849919543,5.380566522013396,0.4175912030041218,0.3888811499928124,5.798157725017518,0.5013296920224093,0.47251000499818474,6.299487417039927,0.4843859499669634,0.4519340730039403,6.7838733670068905,0.5178725080331787,0.4888132400228642,7.301745875040069,0.41791452997131273,0.3887990229995921,7.719660405011382,0.5519328850205056,0.505906472040806,8.271593290031888,,,,0.5347289220080711,0.4893475269782357,8.806322212039959,,,,,j,1,0.6063909600488842,f,1,3.7482512930291705,,,,None,None,0.6003537490032613,0.5507248850190081,9.40667596104322,0.485670993977692,0.4552292099688202,9.892346955020912,0.3343992449808866,0.28918533999240026,10.226746200001799,0.38408775004791096,0.33894854300888255,10.61083395004971,0.3344354999717325,0.3056930369930342,10.945269450021442,,,,,,,,,,10,001,1,2,2018_Oct_04_1542,Dissertation,59.88922004428605,
,,0,,,Verdadero,Falso,f,A,single_left,a,0,0,0,1,f,0,314,a,,,,,,,,,,,,,,,,,,,,,,,,,0,0,0,0,0,74,74,73,,,,,,,,,,,,,,,,,,,,,,,,,,,,,,,,,,,,,,,,,,,,,,,,,,,,,,,,,,,,,,,,,,,f,1,0.8075211399700493,None,0,,,,,None,None,,,,,,,,,,,,,,,,,,,,,,,,,10,001,1,2,2018_Oct_04_1542,Dissertation,59.88922004428605,
,,0,,,Verdadero,Falso,j,B,incongruent_left,Antes de comer el pastel los niños cantaron "Cumpleaños Feliz",0,0,1,0,f,0,239,El pastel era para el final del curso.,,,,,,,,,,,,,,,,,,,,,,,,,1,0,1,0,0,0,0,38,,,,,,,,,,,,,,,,,,1.1543039560201578,1.1461996010039002,1.1543039560201578,0.41779393499018624,0.38861682801507413,1.572097891010344,0.31741808296646923,0.28859744302462786,1.8895159739768133,0.6207061750465073,0.5920160550158471,2.5102221490233205,0.39820868195965886,0.35570713999914005,2.9084308309829794,0.7347889380180277,0.7053235709900036,3.643219769001007,0.4690120799932629,0.43932921503437683,4.11223184899427,0.5011891199974343,0.4721157599706203,4.613420968991704,0.3341544370050542,0.30196149001130834,4.9475754059967585,0.6345195299945772,0.6053294629673474,5.582094935991336,,,,,,,,,,,,,,,,,,,,f,1,0.9869862099876627,j,1,3.930958818004001,,,,None,None,,,,,,,,,,,,,,,,,,,,,,,space,19.40251761302352,10,001,1,2,2018_Oct_04_1542,Dissertation,59.88922004428605,
,,0,,,Verdadero,Falso,f,B,incongruent_left,Antes de que celebraran esa canción no era muy popular ,0,1,1,0,f,0,106,Nadie sabía la canción antes.,,,,,,,,,,,,,,,,,,,,,,,,,1,0,1,0,0,1,1,22,,,,,,,,,,,,,,,,,,0.6343723169993609,0.6226122119696811,0.6343723169993609,0.4511600300320424,0.4209682050277479,1.0855323470314033,0.40194586297729984,0.3732441029860638,1.4874782100087032,0.5014278800226748,0.47396767494501546,1.988906090031378,0.6179924850002863,0.5898922770284116,2.6068985750316642,1.55452918499941,1.5247317120083608,4.161427760031074,0.8182436869828962,0.7894798929919489,4.9796714470139705,0.5855779349803925,0.5563513599918224,5.565249381994363,0.3838851650361903,0.3558380900067277,5.949134547030553,0.4008304880117066,0.37143497297074646,6.34996503504226,,,,,,,,,,,,,,,,,,,,f,1,0.5387222580029629,f,1,3.5271272900281474,,,,None,None,,,,,,,,,,,,,,,,,,,,,,,,,10,001,1,2,2018_Oct_04_1542,Dissertation,59.88922004428605,
,,0,,,Verdadero,Falso,f,B,single_right,Los meseros preparan las verduras en la cocina antes de servirlas,0,0,0,1,j,0,234,Los meseros lavan las verduras.,,,,,,,,,,,,,,,,,,,,,,,,,1,0,1,0,0,2,2,33,,,,,,,,,,,,,,,,,,0.9179911980172619,0.9058099850080907,0.9179911980172619,0.3512846669764258,0.321837194962427,1.2692758649936877,0.3337034800206311,0.30541816499317065,1.6029793450143188,0.7194430130184628,0.6861406319658272,2.3224223580327816,0.43339852697681636,0.4051598749938421,2.755820885009598,0.7015117130358703,0.671939919993747,3.4573325980454683,0.5024935849942267,0.47258269699523225,3.959826183039695,0.30075396999018267,0.2721946429810487,4.260580153029878,0.3334243369754404,0.3047229719813913,4.594004490005318,0.41844019800191745,0.3890526120085269,5.0124446880072355,0.45111625001300126,0.41885687701869756,5.463560938020237,,,,,,,,,,,,,,,,,j,1,0.5730747350025922,f,1,10.695866680995096,,,,None,None,,,,,,,,,,,,,,,,,,,,,,,,,10,001,1,2,2018_Oct_04_1542,Dissertation,59.88922004428605,
,,1,,,Verdadero,Falso,j,B,congruent_left,Los chicos pusieron el pollo que su mamá preparó en el horno en la mesa antes de comer,1,1,0,0,f,0,39,La mamá preparó la comida en la mesa.,,,,,,,,,,,,,,,,,,,,,,,,,1,0,1,0,0,3,3,18,,,,,,,,,,,,,,,,,,0.5674860519939102,0.5521465619676746,0.5674860519939102,0.3009365330217406,0.2683052779757418,0.8684225850156508,0.2505731150158681,0.21877458796370775,1.118995700031519,1.086399181978777,1.0579042480094358,2.205394882010296,0.6004740900243632,0.5715068000135943,2.8058689720346592,0.9199132149806246,0.8897865649778396,3.725782187015284,0.4517276450060308,0.42179372999817133,4.177509832021315,0.3339469700003974,0.30591310997260734,4.511456802021712,0.26693200500449166,0.23835407302249223,4.778388807026204,0.4348930749692954,0.4059831650229171,5.213281881995499,0.43406400503590703,0.40559342998312786,5.647345887031406,1.9219510899856687,1.8926476699998602,7.569296977017075,0.3178162730182521,0.28524400800233707,7.887113250035327,,,,0.5845385819557123,0.5525005600065924,8.47165183199104,,,,,f,1,0.6056713829748333,f,0,5.819736459990963,,,,None,None,0.5851455100346357,0.5522324849735014,9.056797342025675,0.6017501630121842,0.5706651289947331,9.658547505037859,1.4036436569876969,1.375480176997371,11.062191162025556,0.28386508498806506,0.2553293979726732,11.346056247013621,,,,,,,,,,,,,10,001,1,2,2018_Oct_04_1542,Dissertation,59.88922004428605,
,,1,,,Verdadero,Falso,j,B,congruent_left,La cantante colocó el micrófono que usó en el escenario en su lugar después del concierto,1,1,0,0,f,0,31,La cantante no usó un micrófono durante el show.,,,,,,,,,,,,,,,,,,,,,,,,,1,0,1,0,0,4,4,10,,,,,,,,,,,,,,,,,,0.6344676549779251,0.6198464310145937,0.6344676549779251,0.2331949170329608,0.2047472369740717,0.8676625720108859,0.26730249501997605,0.23840822000056505,1.134965067030862,2.858106300001964,2.8280947700259276,3.993071367032826,0.7861507399939001,0.7570560669992119,4.779222107026726,0.400852799997665,0.3689252670155838,5.180074907024391,1.0694300099858083,1.0375522599788383,6.249504917010199,0.6847040680004284,0.6561503849807195,6.934208985010628,0.9519689769949764,0.9217101579997689,7.886177962005604,0.3183056249981746,0.28463400003965944,8.204483587003779,0.5846729049808346,0.5563406099681742,8.789156491984613,0.5852871050010435,0.5521760620176792,9.374443596985657,0.8354298550402746,0.8070356100215577,10.209873452025931,,,,0.3843963029794395,0.3545348499901593,10.59426975500537,,,,,f,1,0.5722226320067421,j,1,3.0131881129927933,,,,None,None,0.7846664219978265,0.7565700419945642,11.378936177003197,1.0198240780155174,0.9905347779858857,12.398760255018715,,,,,,,,,,,,,,,,,,,10,001,1,2,2018_Oct_04_1542,Dissertation,59.88922004428605,
,,0,,,Verdadero,Falso,f,B,single_left,La estudiante lista adivinó la respuesta correcta primero,0,0,0,1,f,0,248,La estudiante fue la primera en responder. ,,,,,,,,,,,,,,,,,,,,,,,,,1,0,1,0,0,5,5,47,,,,,,,,,,,,,,,,,,0.5506621969980188,0.5404313299804926,0.5506621969980188,0.267436527996324,0.2348538120277226,0.8180987249943428,0.8183339969837107,0.7894322319771163,1.6364327219780535,1.02006055804668,0.9908252599998377,2.6564932800247334,1.9882281699683517,1.9596505030058324,4.644721449993085,0.5182019519852474,0.49495834996923804,5.1629234019783325,0.5677095580031164,0.5387726679909974,5.730632959981449,0.3014656970044598,0.27243369701318443,6.032098656985909,,,,,,,,,,,,,,,,,,,,,,,,,,f,1,0.4889756799675524,f,1,3.364430753979832,,,,None,None,,,,,,,,,,,,,,,,,,,,,,,,,10,001,1,2,2018_Oct_04_1542,Dissertation,59.88922004428605,
,,0,,,Verdadero,Falso,j,B,single_left,Linda hace un paseo en las montañas todos los sábados,0,0,0,1,f,0,236,A Linda no le gusta la naturaleza.,,,,,,,,,,,,,,,,,,,,,,,,,1,0,1,0,0,6,6,35,,,,,,,,,,,,,,,,,,0.4669256620109081,0.4561678319587372,0.4669256620109081,0.31750603998079896,0.2879823229741305,0.7844317019917071,0.30078883800888434,0.27288788999430835,1.0852205400005914,0.635180159995798,0.6064686930039898,1.7204006999963894,0.3838774369796738,0.3553986200131476,2.1042781369760633,1.0859341930481605,1.0568942729732953,3.1902123300242238,0.6857244949787855,0.6518227549968287,3.8759368250030093,0.7018282769713551,0.672737795044668,4.577765101974364,0.4847554480074905,0.4558859569951892,5.062520549981855,0.4345271050115116,0.405207057017833,5.4970476549933665,,,,,,,,,,,,,,,,,,,,f,1,0.5701006169547327,j,1,1.9434715550160035,,,,None,None,,,,,,,,,,,,,,,,,,,,,,,,,10,001,1,2,2018_Oct_04_1542,Dissertation,59.88922004428605,
,,0,,,Verdadero,Falso,j,B,incongruent_right,Mientras el maestro tocaba el violín resonaba por todo el salón,1,1,1,0,j,1,25,El maestro tocaba el piano.,,,,,,,,,,,,,,,,,,,,,,,,,1,0,1,0,0,7,7,4,,,,,,,,,,,,,,,,,,0.5173835249734111,0.5050129789742641,0.5173835249734111,0.28393708501243964,0.2514333879807964,0.8013206099858508,0.5178408600040711,0.48839184700045735,1.319161469989922,0.5342292900313623,0.5053034619777463,1.8533907600212842,0.7190576999564655,0.6893488249625079,2.5724484599777497,0.635101393039804,0.6060636249603704,3.2075498530175537,0.8188586699543521,0.7893329029902816,4.026408522971906,1.5207194300019182,1.4913979700068012,5.547127952973824,0.5014674870180897,0.47268543002428487,6.048595439991914,0.4013803380075842,0.368894650018774,6.449975777999498,0.46791830501751974,0.4387805800070055,6.917894083017018,,,,,,,,,,,,,,,,,j,1,0.8242583249812014,f,0,1.538692425005138,,,,None,None,,,,,,,,,,,,,,,,,,,,,,,,,10,001,1,2,2018_Oct_04_1542,Dissertation,59.88922004428605,
