practiceimage,PracticeimageCorrAns,congruent,practiceSentence,practiceSentenceCompQ,compRespL,compRespR,compRespCorr,block,image,sentence,ambiguous,critical,Incongruent,Single,imageCorrAns,incongruentambiguous,criticalSentenceCode,compQ,RepeatFlankerIfNeeded.thisRepN,RepeatFlankerIfNeeded.thisTrialN,RepeatFlankerIfNeeded.thisN,RepeatFlankerIfNeeded.thisIndex,practiceFlankerLoop.thisRepN,practiceFlankerLoop.thisTrialN,practiceFlankerLoop.thisN,practiceFlankerLoop.thisIndex,RepeatPracticeSentencesIfNeeded.thisRepN,RepeatPracticeSentencesIfNeeded.thisTrialN,RepeatPracticeSentencesIfNeeded.thisN,RepeatPracticeSentencesIfNeeded.thisIndex,practiceSentenceLoop.thisRepN,practiceSentenceLoop.thisTrialN,practiceSentenceLoop.thisN,practiceSentenceLoop.thisIndex,MixedPractice.thisRepN,MixedPractice.thisTrialN,MixedPractice.thisN,MixedPractice.thisIndex,MixedPracticeTrial.thisRepN,MixedPracticeTrial.thisTrialN,MixedPracticeTrial.thisN,MixedPracticeTrial.thisIndex,blocks.thisRepN,blocks.thisTrialN,blocks.thisN,blocks.thisIndex,trials.thisRepN,trials.thisTrialN,trials.thisN,trials.thisIndex,keyResponseIntroText.keys,keyResponseIntroText.rt,keyResponseIntro2Text.keys,keyResponseIntro2Text.rt,FlankerInstructions_keyresponse.keys,FlankerInstructions_keyresponse.rt,FlankerInstructions2_keyresponse.keys,FlankerInstructions2_keyresponse.rt,PracticeFlankerResponse.keys,PracticeFlankerResponse.corr,PracticeFlankerResponse.rt,SPRInstructions_keyresponse.keys,SPRInstructions_keyresponse.rt,key_resp_5.keys,key_resp_5.rt,SPRinstructions2_keyresponse.keys,SPRinstructions2_keyresponse.rt,IRI_0,IRI_FL_0,space_0,IRI_1,IRI_FL_1,space_1,IRI_2,IRI_FL_2,space_2,IRI_3,IRI_FL_3,space_3,IRI_4,IRI_FL_4,space_4,IRI_5,IRI_FL_5,space_5,IRI_6,IRI_FL_6,space_6,IRI_7,IRI_FL_7,space_7,IRI_8,IRI_FL_8,space_8,IRI_9,IRI_FL_9,space_9,IRI_10,IRI_FL_10,space_10,IRI_11,IRI_FL_11,space_11,IRI_12,IRI_FL_12,space_12,key_resp_practiceCompQ.keys,key_resp_practiceCompQ.corr,key_resp_practiceCompQ.rt,IRI_13,IRI_FL_13,space_13,combinedInstructions_keyresponse.keys,combinedInstructions_keyresponse.rt,keyResponseInstructionsMixed.keys,keyResponseInstructionsMixed.rt,flankerkeyresponse.keys,flankerkeyresponse.corr,flankerkeyresponse.rt,CompQkeyresponse.keys,CompQkeyresponse.corr,CompQkeyresponse.rt,key_resp_3.keys,keyResponsePreStart.keys,keyResponsePreStart.rt,key_resp_2.keys,key_resp_4.keys,IRI_14,IRI_FL_14,space_14,IRI_15,IRI_FL_15,space_15,IRI_16,IRI_FL_16,space_16,IRI_17,IRI_FL_17,space_17,IRI_18,IRI_FL_18,space_18,IRI_19,IRI_FL_19,space_19,IRI_20,IRI_FL_20,space_20,key_resp_4.rt,rest_keyresponse.keys,rest_keyresponse.rt,participant,session,group,level,date,expName,frameRate,
,,,,,,,,,,,,,,,,,,,,,,,,,,,,,,,,,,,,,,,,,,,,,,,,,,,space,14.662734473997261,,,,,,,,,,,,,,,,,,,,,,,,,,,,,,,,,,,,,,,,,,,,,,,,,,,,,,,,,,,,,,,,,,,,,,,,,,,,,,,,,,,,,,,,,,,,,,,,,,,,6,001,1,2,2018_Oct_02_0940,Dissertation,60.3364066091653,
,,,,,,,,,,,,,,,,,,,,,,,,,,,,,,,,,,,,,,,,,,,,,,,,,,,,,space,7.022489839990158,,,,,,,,,,,,,,,,,,,,,,,,,,,,,,,,,,,,,,,,,,,,,,,,,,,,,,,,,,,,,,,,,,,,,,,,,,,,,,,,,,,,,,,,,,,,,,,,,,6,001,1,2,2018_Oct_02_0940,Dissertation,60.3364066091653,
,,,,,,,,,,,,,,,,,,,,,,,,,,,,,,,,,,,,,,,,,,,,,,,,,,,,,,,space,14.215724745998159,,,,,,,,,,,,,,,,,,,,,,,,,,,,,,,,,,,,,,,,,,,,,,,,,,,,,,,,,,,,,,,,,,,,,,,,,,,,,,,,,,,,,,,,,,,,,,,,6,001,1,2,2018_Oct_02_0940,Dissertation,60.3364066091653,
incongruent_left,f,0,Sometimes they'll be short,All sentences are the same.,Verdadero,Falso,j,practice,,,,,,,,,,,0,0,0,0,0,0,0,2,,,,,,,,,,,,,,,,,,,,,,,,,,,,,,,space,2.696153138007503,f,1,1.1906863479525782,,,,,,,,,,,,,,,,,,,,,,,,,,,,,,,,,,,,,,,,,,,,,,,,,,,,,,,,,,,,,,,,,,,,,,,,,,,,,,,,,,,,,,,,,,,6,001,1,2,2018_Oct_02_0940,Dissertation,60.3364066091653,
congruent_right,j,1,Sometimes the sentences will be longer,Some sentences are long.,Verdadero,Falso,f,practice,,,,,,,,,,,0,0,0,0,0,1,1,1,,,,,,,,,,,,,,,,,,,,,,,,,,,,,,,,,j,1,0.5679771700524725,,,,,,,,,,,,,,,,,,,,,,,,,,,,,,,,,,,,,,,,,,,,,,,,,,,,,,,,,,,,,,,,,,,,,,,,,,,,,,,,,,,,,,,,,,,6,001,1,2,2018_Oct_02_0940,Dissertation,60.3364066091653,
single_right,j,0,It's no problem if you need to guess the answer from time to time,It's important that you don't guess.,Verdadero,Falso,j,practice,,,,,,,,,,,0,0,0,0,0,2,2,5,,,,,,,,,,,,,,,,,,,,,,,,,,,,,,,,,j,1,0.5062223919667304,,,,,,,,,,,,,,,,,,,,,,,,,,,,,,,,,,,,,,,,,,,,,,,,,,,,,,,,,,,,,,,,,,,,,,,,,,,,,,,,,,,,,,,,,,,6,001,1,2,2018_Oct_02_0940,Dissertation,60.3364066091653,
congruent_left,f,1,This is an example of the sentences you will see throughout the study,You just saw an example of a stimulus.,Verdadero,Falso,f,practice,,,,,,,,,,,0,0,0,0,0,3,3,0,,,,,,,,,,,,,,,,,,,,,,,,,,,,,,,,,f,1,0.5216472839820199,,,,,,,,,,,,,,,,,,,,,,,,,,,,,,,,,,,,,,,,,,,,,,,,,,,,,,,,,,,,,,,,,,,,,,,,,,,,,,,,,,,,,,,,,,,6,001,1,2,2018_Oct_02_0940,Dissertation,60.3364066091653,
single_left,f,0,The questions that follow each sentence sometimes will be obvious and sometimes more difficult ,The difficulty of each sentence varies.,Verdadero,Falso,f,practice,,,,,,,,,,,0,0,0,0,0,4,4,4,,,,,,,,,,,,,,,,,,,,,,,,,,,,,,,,,f,1,0.4362106319749728,,,,,,,,,,,,,,,,,,,,,,,,,,,,,,,,,,,,,,,,,,,,,,,,,,,,,,,,,,,,,,,,,,,,,,,,,,,,,,,,,,,,,,,,,,,6,001,1,2,2018_Oct_02_0940,Dissertation,60.3364066091653,
incongruent_right,j,0,Your task is to read the sentence in the most natural way possible,You don't have to pay attention to the sentence.,Verdadero,Falso,j,practice,,,,,,,,,,,0,0,0,0,0,5,5,3,,,,,,,,,,,,,,,,,,,,,,,,,,,,,,,,,j,1,0.4857032300205901,,,,,,,,,,,,,,,,,,,,,,,,,,,,,,,,,,,,,,,,,,,,,,,,,,,,,,,,,,,,,,,,,,,,,,,,,,,,,,,,,,,,,,,,,,,6,001,1,2,2018_Oct_02_0940,Dissertation,60.3364066091653,
single_right,j,0,It's no problem if you need to guess the answer from time to time,It's important that you don't guess.,Verdadero,Falso,j,practice,,,,,,,,,,,0,0,0,0,1,0,6,5,,,,,,,,,,,,,,,,,,,,,,,,,,,,,,,,,j,1,0.40584640501765534,,,,,,,,,,,,,,,,,,,,,,,,,,,,,,,,,,,,,,,,,,,,,,,,,,,,,,,,,,,,,,,,,,,,,,,,,,,,,,,,,,,,,,,,,,,6,001,1,2,2018_Oct_02_0940,Dissertation,60.3364066091653,
congruent_left,f,1,This is an example of the sentences you will see throughout the study,You just saw an example of a stimulus.,Verdadero,Falso,f,practice,,,,,,,,,,,0,0,0,0,1,1,7,0,,,,,,,,,,,,,,,,,,,,,,,,,,,,,,,,,f,1,0.37344324501464143,,,,,,,,,,,,,,,,,,,,,,,,,,,,,,,,,,,,,,,,,,,,,,,,,,,,,,,,,,,,,,,,,,,,,,,,,,,,,,,,,,,,,,,,,,,6,001,1,2,2018_Oct_02_0940,Dissertation,60.3364066091653,
single_left,f,0,The questions that follow each sentence sometimes will be obvious and sometimes more difficult ,The difficulty of each sentence varies.,Verdadero,Falso,f,practice,,,,,,,,,,,0,0,0,0,1,2,8,4,,,,,,,,,,,,,,,,,,,,,,,,,,,,,,,,,f,1,0.4203182649798691,,,,,,,,,,,,,,,,,,,,,,,,,,,,,,,,,,,,,,,,,,,,,,,,,,,,,,,,,,,,,,,,,,,,,,,,,,,,,,,,,,,,,,,,,,,6,001,1,2,2018_Oct_02_0940,Dissertation,60.3364066091653,
incongruent_left,f,0,Sometimes they'll be short,All sentences are the same.,Verdadero,Falso,j,practice,,,,,,,,,,,0,0,0,0,1,3,9,2,,,,,,,,,,,,,,,,,,,,,,,,,,,,,,,,,f,1,0.5756120950100012,,,,,,,,,,,,,,,,,,,,,,,,,,,,,,,,,,,,,,,,,,,,,,,,,,,,,,,,,,,,,,,,,,,,,,,,,,,,,,,,,,,,,,,,,,,6,001,1,2,2018_Oct_02_0940,Dissertation,60.3364066091653,
congruent_right,j,1,Sometimes the sentences will be longer,Some sentences are long.,Verdadero,Falso,f,practice,,,,,,,,,,,0,0,0,0,1,4,10,1,,,,,,,,,,,,,,,,,,,,,,,,,,,,,,,,,j,1,0.3899403149844147,,,,,,,,,,,,,,,,,,,,,,,,,,,,,,,,,,,,,,,,,,,,,,,,,,,,,,,,,,,,,,,,,,,,,,,,,,,,,,,,,,,,,,,,,,,6,001,1,2,2018_Oct_02_0940,Dissertation,60.3364066091653,
incongruent_right,j,0,Your task is to read the sentence in the most natural way possible,You don't have to pay attention to the sentence.,Verdadero,Falso,j,practice,,,,,,,,,,,0,0,0,0,1,5,11,3,,,,,,,,,,,,,,,,,,,,,,,,,,,,,,,,,j,1,0.4869117880007252,,,,,,,,,,,,,,,,,,,,,,,,,,,,,,,,,,,,,,,,,,,,,,,,,,,,,,,,,,,,,,,,,,,,,,,,,,,,,,,,,,,,,,,,,,,6,001,1,2,2018_Oct_02_0940,Dissertation,60.3364066091653,
single_right,j,0,It's no problem if you need to guess the answer from time to time,It's important that you don't guess.,Verdadero,Falso,j,practice,,,,,,,,,,,0,0,0,0,2,0,12,5,,,,,,,,,,,,,,,,,,,,,,,,,,,,,,,,,j,1,0.40453479695133865,,,,,,,,,,,,,,,,,,,,,,,,,,,,,,,,,,,,,,,,,,,,,,,,,,,,,,,,,,,,,,,,,,,,,,,,,,,,,,,,,,,,,,,,,,,6,001,1,2,2018_Oct_02_0940,Dissertation,60.3364066091653,
congruent_left,f,1,This is an example of the sentences you will see throughout the study,You just saw an example of a stimulus.,Verdadero,Falso,f,practice,,,,,,,,,,,0,0,0,0,2,1,13,0,,,,,,,,,,,,,,,,,,,,,,,,,,,,,,,,,f,1,0.4010177489835769,,,,,,,,,,,,,,,,,,,,,,,,,,,,,,,,,,,,,,,,,,,,,,,,,,,,,,,,,,,,,,,,,,,,,,,,,,,,,,,,,,,,,,,,,,,6,001,1,2,2018_Oct_02_0940,Dissertation,60.3364066091653,
congruent_right,j,1,Sometimes the sentences will be longer,Some sentences are long.,Verdadero,Falso,f,practice,,,,,,,,,,,0,0,0,0,2,2,14,1,,,,,,,,,,,,,,,,,,,,,,,,,,,,,,,,,j,1,0.3764594839885831,,,,,,,,,,,,,,,,,,,,,,,,,,,,,,,,,,,,,,,,,,,,,,,,,,,,,,,,,,,,,,,,,,,,,,,,,,,,,,,,,,,,,,,,,,,6,001,1,2,2018_Oct_02_0940,Dissertation,60.3364066091653,
incongruent_right,j,0,Your task is to read the sentence in the most natural way possible,You don't have to pay attention to the sentence.,Verdadero,Falso,j,practice,,,,,,,,,,,0,0,0,0,2,3,15,3,,,,,,,,,,,,,,,,,,,,,,,,,,,,,,,,,j,1,0.519422403012868,,,,,,,,,,,,,,,,,,,,,,,,,,,,,,,,,,,,,,,,,,,,,,,,,,,,,,,,,,,,,,,,,,,,,,,,,,,,,,,,,,,,,,,,,,,6,001,1,2,2018_Oct_02_0940,Dissertation,60.3364066091653,
incongruent_left,f,0,Sometimes they'll be short,All sentences are the same.,Verdadero,Falso,j,practice,,,,,,,,,,,0,0,0,0,2,4,16,2,,,,,,,,,,,,,,,,,,,,,,,,,,,,,,,,,f,1,0.4230033310013823,,,,,,,,,,,,,,,,,,,,,,,,,,,,,,,,,,,,,,,,,,,,,,,,,,,,,,,,,,,,,,,,,,,,,,,,,,,,,,,,,,,,,,,,,,,6,001,1,2,2018_Oct_02_0940,Dissertation,60.3364066091653,
single_left,f,0,The questions that follow each sentence sometimes will be obvious and sometimes more difficult ,The difficulty of each sentence varies.,Verdadero,Falso,f,practice,,,,,,,,,,,0,0,0,0,2,5,17,4,,,,,,,,,,,,,,,,,,,,,,,,,,,,,,,,,f,1,0.4060984579846263,,,,,,,,,,,,,,,,,,,,,,,,,,,,,,,,,,,,,,,,,,,,,,,,,,,,,,,,,,,,,,,,,,,,,,,,,,,,,,,,,,,,,,,,,,,6,001,1,2,2018_Oct_02_0940,Dissertation,60.3364066091653,
incongruent_right,j,0,Your task is to read the sentence in the most natural way possible,You don't have to pay attention to the sentence.,Verdadero,Falso,j,practice,,,,,,,,,,,0,0,0,0,3,0,18,3,,,,,,,,,,,,,,,,,,,,,,,,,,,,,,,,,j,1,0.44009762501809746,,,,,,,,,,,,,,,,,,,,,,,,,,,,,,,,,,,,,,,,,,,,,,,,,,,,,,,,,,,,,,,,,,,,,,,,,,,,,,,,,,,,,,,,,,,6,001,1,2,2018_Oct_02_0940,Dissertation,60.3364066091653,
single_right,j,0,It's no problem if you need to guess the answer from time to time,It's important that you don't guess.,Verdadero,Falso,j,practice,,,,,,,,,,,0,0,0,0,3,1,19,5,,,,,,,,,,,,,,,,,,,,,,,,,,,,,,,,,j,1,0.37364138098200783,,,,,,,,,,,,,,,,,,,,,,,,,,,,,,,,,,,,,,,,,,,,,,,,,,,,,,,,,,,,,,,,,,,,,,,,,,,,,,,,,,,,,,,,,,,6,001,1,2,2018_Oct_02_0940,Dissertation,60.3364066091653,
incongruent_left,f,0,Sometimes they'll be short,All sentences are the same.,Verdadero,Falso,j,practice,,,,,,,,,,,0,0,0,0,3,2,20,2,,,,,,,,,,,,,,,,,,,,,,,,,,,,,,,,,f,1,0.5228316630236804,,,,,,,,,,,,,,,,,,,,,,,,,,,,,,,,,,,,,,,,,,,,,,,,,,,,,,,,,,,,,,,,,,,,,,,,,,,,,,,,,,,,,,,,,,,6,001,1,2,2018_Oct_02_0940,Dissertation,60.3364066091653,
congruent_right,j,1,Sometimes the sentences will be longer,Some sentences are long.,Verdadero,Falso,f,practice,,,,,,,,,,,0,0,0,0,3,3,21,1,,,,,,,,,,,,,,,,,,,,,,,,,,,,,,,,,j,1,0.4023644700064324,,,,,,,,,,,,,,,,,,,,,,,,,,,,,,,,,,,,,,,,,,,,,,,,,,,,,,,,,,,,,,,,,,,,,,,,,,,,,,,,,,,,,,,,,,,6,001,1,2,2018_Oct_02_0940,Dissertation,60.3364066091653,
single_left,f,0,The questions that follow each sentence sometimes will be obvious and sometimes more difficult ,The difficulty of each sentence varies.,Verdadero,Falso,f,practice,,,,,,,,,,,0,0,0,0,3,4,22,4,,,,,,,,,,,,,,,,,,,,,,,,,,,,,,,,,f,1,0.4224382520187646,,,,,,,,,,,,,,,,,,,,,,,,,,,,,,,,,,,,,,,,,,,,,,,,,,,,,,,,,,,,,,,,,,,,,,,,,,,,,,,,,,,,,,,,,,,6,001,1,2,2018_Oct_02_0940,Dissertation,60.3364066091653,
congruent_left,f,1,This is an example of the sentences you will see throughout the study,You just saw an example of a stimulus.,Verdadero,Falso,f,practice,,,,,,,,,,,0,0,0,0,3,5,23,0,,,,,,,,,,,,,,,,,,,,,,,,,,,,,,,,,f,1,0.4383787629776634,,,,,,,,,,,,,,,,,,,,,,,,,,,,,,,,,,,,,,,,,,,,,,,,,,,,,,,,,,,,,,,,,,,,,,,,,,,,,,,,,,,,,,,,,,,6,001,1,2,2018_Oct_02_0940,Dissertation,60.3364066091653,
,,,,,,,,,,,,,,,,,,,0,0,0,0,,,,,,,,,,,,,,,,,,,,,,,,,,,,,,,,,,,,,,,,,,,,,,,,,,,,,,,,,,,,,,,,,,,,,,,,,,,,,,,,,,,,,,,,,,,,,,,,,,,,,,,,,,,,,,,,,,,,,,,,,,,,,,,,,,6,001,1,2,2018_Oct_02_0940,Dissertation,60.3364066091653,
,,,,,,,,,,,,,,,,,,,,,,,,,,,,,,,,,,,,,,,,,,,,,,,,,,,,,,,,,,,,,,space,21.393961886002216,,,,,,,,,,,,,,,,,,,,,,,,,,,,,,,,,,,,,,,,,,,,,,,,,,,,,,,,,,,,,,,,,,,,,,,,,,,,,,,,,,,,,,,,,6,001,1,2,2018_Oct_02_0940,Dissertation,60.3364066091653,
,,,,,,,,,,,,,,,,,,,,,,,,,,,,,,,,,,,,,,,,,,,,,,,,,,,,,,,,,,,,,,,,space,6.901692790037487,,,,,,,,,,,,,,,,,,,,,,,,,,,,,,,,,,,,,,,,,,,,,,,,,,,,,,,,,,,,,,,,,,,,,,,,,,,,,,,,,,,,,,,6,001,1,2,2018_Oct_02_0940,Dissertation,60.3364066091653,
congruent_left,f,1,This is an example of the sentences you will see throughout the study,You just saw an example of a stimulus.,Verdadero,Falso,f,practice,,,,,,,,,,,,,,,,,,,0,0,0,0,0,0,0,0,,,,,,,,,,,,,,,,,,,,,,,,,,,,,,,,space,4.1494410849991255,0.564180801040493,0.5416156610008329,0.564180801040493,0.6684963179868646,0.6398278970154934,1.2326771190273575,0.7185517600155436,0.6895796980243176,1.951228879042901,0.5014184619649313,0.46855617803521454,2.4526473410078324,0.5849151250440627,0.5529898380045779,3.037562466051895,0.45108098798664287,0.41807564499322325,3.488643454038538,0.38327522500185296,0.3543091819738038,3.871918679040391,0.43560424697352573,0.4063539780327119,4.307522926013917,0.3844092800281942,0.35497510503046215,4.691932206042111,0.3845151729765348,0.35215843498008326,5.076447379018646,0.3659998750081286,0.3331328150234185,5.442447254026774,0.4013769620214589,0.37222400499740615,5.843824216048233,0.3689340699929744,0.3398216590285301,6.212758286041208,f,1,7.943566842004657,,,,,,,,,,,,,,,,,,,,,,,,,,,,,,,,,,,,,,,,,,,6,001,1,2,2018_Oct_02_0940,Dissertation,60.3364066091653,
congruent_right,j,1,Sometimes the sentences will be longer,Some sentences are long.,Verdadero,Falso,f,practice,,,,,,,,,,,,,,,,,,,0,0,0,0,0,1,1,1,,,,,,,,,,,,,,,,,,,,,,,,,,,,,,,,,,1.016835011949297,1.0063260900205933,1.016835011949297,0.4965543260332197,0.47241027001291513,1.5133893379825167,0.4008710400084965,0.3720824799966067,1.9142603779910132,0.4509872649796307,0.42254183802288026,2.365247642970644,0.43466106202686206,0.40155980503186584,2.799908704997506,0.38429060496855527,0.35678324999753386,3.1841993099660613,,,,,,,,,,,,,,,,,,,,,,f,1,2.1269647240405902,,,,,,,,,,,,,,,,,,,,,,,,,,,,,,,,,,,,,,,,,,,6,001,1,2,2018_Oct_02_0940,Dissertation,60.3364066091653,
incongruent_left,f,0,Sometimes they'll be short,All sentences are the same.,Verdadero,Falso,j,practice,,,,,,,,,,,,,,,,,,,0,0,0,0,0,2,2,2,,,,,,,,,,,,,,,,,,,,,,,,,,,,,,,,,,0.7282673380104825,0.7201848630211316,0.7282673380104825,0.43596305698156357,0.42288058501435444,1.164230394992046,0.4341985229984857,0.4052714370191097,1.5984289179905318,0.36798548500519246,0.3389539350173436,1.9664144029957242,,,,,,,,,,,,,,,,,,,,,,,,,,,,j,1,1.870643011003267,,,,,,,,,,,,,,,,,,,,,,,,,,,,,,,,,,,,,,,,,,,6,001,1,2,2018_Oct_02_0940,Dissertation,60.3364066091653,
incongruent_right,j,0,Your task is to read the sentence in the most natural way possible,You don't have to pay attention to the sentence.,Verdadero,Falso,j,practice,,,,,,,,,,,,,,,,,,,0,0,0,0,0,3,3,3,,,,,,,,,,,,,,,,,,,,,,,,,,,,,,,,,,0.7345394850126468,0.7185847599757835,0.7345394850126468,0.334326938027516,0.3049076229799539,1.0688664230401628,0.31817343697184697,0.28974709298927337,1.3870398600120097,0.3337449880200438,0.3052555999602191,1.7207848480320536,0.35109094996005297,0.3213672319543548,2.0718757979921065,0.3341407270054333,0.30499873496592045,2.40601652499754,0.31706863502040505,0.28811723995022476,2.723085160017945,0.33434410800691694,0.30463558301562443,3.057429268024862,0.3515871500130743,0.3225318350014277,3.409016418037936,0.3166833999566734,0.28799588000401855,3.7256998179946095,0.33452402701368555,0.3048722120001912,4.060223845008295,0.36791060300311074,0.3353391200071201,4.428134448011406,0.33449132699752226,0.30507451004814357,4.762625775008928,j,1,5.635797212016769,,,,,,,,,,,,,,,,,,,,,,,,,,,,,,,,,,,,,,,,,,,6,001,1,2,2018_Oct_02_0940,Dissertation,60.3364066091653,
single_left,f,0,The questions that follow each sentence sometimes will be obvious and sometimes more difficult ,The difficulty of each sentence varies.,Verdadero,Falso,f,practice,,,,,,,,,,,,,,,,,,,0,0,0,0,0,4,4,4,,,,,,,,,,,,,,,,,,,,,,,,,,,,,,,,,,0.7129561500041746,0.6931116370251402,0.7129561500041746,0.33367805799935013,0.30557679501362145,1.0466342080035247,0.33381204499164596,0.30494360998272896,1.3804462529951707,0.33469923003576696,0.3046653019846417,1.7151454830309376,0.33430363197112456,0.30558735999511555,2.049449115002062,0.3844315630267374,0.355539235053584,2.4338806780287996,0.35103552998043597,0.3220996980089694,2.7849162080092356,0.34962011699099094,0.3208838300197385,3.1345363250002265,0.3856727750389837,0.35702507698442787,3.52020910003921,0.35077446297509596,0.3229515050188638,3.870983563014306,0.3510938319959678,0.3180792650091462,4.222077395010274,0.3331288250046782,0.3050841180374846,4.555206220014952,0.3841368749854155,0.353763552964665,4.939343095000368,f,1,1.8054256199975498,0.35233030800009146,0.3187065650126897,5.291673403000459,,,,,,,,,,,,,,,,,,,,,,,,,,,,,,,,,,,,,,,,6,001,1,2,2018_Oct_02_0940,Dissertation,60.3364066091653,
single_right,j,0,It's no problem if you need to guess the answer from time to time,It's important that you don't guess.,Verdadero,Falso,j,practice,,,,,,,,,,,,,,,,,,,0,0,0,0,0,5,5,5,,,,,,,,,,,,,,,,,,,,,,,,,,,,,,,,,,0.6487620099796914,0.6341821469832212,0.6487620099796914,0.3508719829842448,0.3213218649616465,0.9996339929639362,0.417971077025868,0.3856464819982648,1.4176050699898042,0.3507735150051303,0.3217143850051798,1.7683785849949345,0.3509551449678838,0.321477068006061,2.1193337299628183,0.35143188503570855,0.32189118495443836,2.470765614998527,0.36686060996726155,0.33854006696492434,2.8376262249657884,0.36724953504744917,0.33862658200087026,3.2048757600132376,0.3683727949974127,0.33908241998869926,3.5732485550106503,0.3675925849820487,0.33855846495134756,3.940841139992699,0.3507321900106035,0.3225534720113501,4.2915733300033025,0.3845765679725446,0.35488036304013804,4.676149897975847,0.3501268210238777,0.319487109023612,5.026276718999725,j,1,1.7913172399858013,0.4019463839940727,0.37347721797414124,5.4282231029937975,,,,,,,,,,,,,,,,,,,,,,,,,,,,,,,,,,,,,,,,6,001,1,2,2018_Oct_02_0940,Dissertation,60.3364066091653,
,,,,,,,,,,,,,,,,,,,,,,,,,,,0,0,0,0,,,,,,,,,,,,,,,,,,,,,,,,,,,,,,,,,,,,,,,,,,,,,,,,,,,,,,,,,,,,,,,,,,,,,,,,,,,,,,,,,,,,,,,,,,,,,,,,,,,,,,,,,,,,,,,,,,,,,,,,,,6,001,1,2,2018_Oct_02_0940,Dissertation,60.3364066091653,
,,,,,,,,,,,,,,,,,,,,,,,,,,,,,,,,,,,,,,,,,,,,,,,,,,,,,,,,,,,,,,,,,,,,,,,,,,,,,,,,,,,,,,,,,,,,,,,,,,,,,,,,,,,,,,,,,space,32.965687566029374,,,,,,,,,,,,,,,,,,,,,,,,,,,,,,,,,,,,,,6,001,1,2,2018_Oct_02_0940,Dissertation,60.3364066091653,
,,None,,,Verdadero,Falso,j,None,congruent_left,El chico corrió en el parque ayer,None,None,None,None,f,None,0,El chico no hizo nada ayer.,,,,,,,,,,,,,,,,,0,0,0,0,0,0,0,0,,,,,,,,,,,,,,,,,,,,,,,,,,0.5173666129703633,0.505658726033289,0.5173666129703633,0.38402599503751844,0.35453424701699987,0.9013926080078818,0.5520296400063671,0.5240987429860979,1.453422248014249,0.3837121119722724,0.35531479702331126,1.8371343599865213,0.7015784929972142,0.6703770049498416,2.5387128529837355,0.5353190019959584,0.5014348099939525,3.074031854979694,0.6175465399865061,0.6040187080507167,3.6915783949662,,,,,,,,,,,,,,,,,,,,,,,,,,,space,8.95820505701704,f,1,0.5217824949650094,j,1,2.427392504992895,None,,,,,,,,,,,,,,,,,,,,,,,,,,,,,6,001,1,2,2018_Oct_02_0940,Dissertation,60.3364066091653,
,,None,,,Verdadero,Falso,j,None,single_left,A Iván le gusta cocinar y toma clases de gastronomía,None,None,None,None,f,None,0,Iván cocina mucho.,,,,,,,,,,,,,,,,,0,0,0,0,0,1,1,5,,,,,,,,,,,,,,,,,,,,,,,,,,0.6344439280219376,0.618109276983887,0.6344439280219376,0.4010680299834348,0.36820397700648755,1.0355119580053724,0.6343275120016187,0.6057088520028628,1.6698394700069912,0.46840912802144885,0.4395367499673739,2.13824859802844,0.5684462549979798,0.5354797019972466,2.70669485302642,0.5515226650168188,0.5225488350261003,3.2582175180432387,0.41764311195584014,0.3855615800130181,3.675860629999079,0.4344987930380739,0.4054217729717493,4.110359423037153,0.4847026349743828,0.45327178202569485,4.5950620580115356,0.3837275070254691,0.357502764032688,4.978789565037005,,,,,,,,,,,,,,,,,,,,f,1,0.5716270789853297,f,0,4.6505333770182915,None,,,,,,,,,,,,,,,,,,,,,,,,,,,,,6,001,1,2,2018_Oct_02_0940,Dissertation,60.3364066091653,
,,None,,,Verdadero,Falso,f,None,single_right,La madre de Julieta vive en Filadelfia así que Julieta la visita mucho,None,None,None,None,j,None,0,Julieta y su madre se ven mucho.,,,,,,,,,,,,,,,,,0,0,0,0,0,2,2,4,,,,,,,,,,,,,,,,,,,,,,,,,,0.5668523350032046,0.5487775169895031,0.5668523350032046,0.41764481499558315,0.38851819303818047,0.9844971499987878,0.36663621000479907,0.3373560570180416,1.3511333600035869,0.3678736980073154,0.33849595999345183,1.7190070580109023,0.4185271119931713,0.3890894880169071,2.1375341700040735,0.4010090749943629,0.36868117295671254,2.5385432449984364,0.38410783297149464,0.35182848502881825,2.922651077969931,0.7347431310336106,0.7041675659711473,3.6573942090035416,0.45202493597753346,0.42215414700331166,4.109419144981075,0.484429812990129,0.4562720719841309,4.593848957971204,0.5352880250429735,0.5058169050025754,5.1291369830141775,0.38408355199499056,0.35543241997947916,5.513220535009168,0.4177575599751435,0.38878151000244543,5.930978094984312,,,,,,,,,,,j,1,0.6395579220261425,f,1,3.0777613460086286,None,,,,,,,,,,,,,,,,,,,,,,,,,,,,,6,001,1,2,2018_Oct_02_0940,Dissertation,60.3364066091653,
,,None,,,Verdadero,Falso,f,None,incongruent_right,Estudio mucho durante la semana para poder divertirme durante el fin de semana,None,None,None,None,j,None,0,No voy a la biblioteca mucho los fines de semana.,,,,,,,,,,,,,,,,,0,0,0,0,0,3,3,2,,,,,,,,,,,,,,,,,,,,,,,,,,0.6513953679823317,0.635034654987976,0.6513953679823317,0.4670139820082113,0.43822414200985804,1.118409349990543,0.48460593802155927,0.45478631503647193,1.6030152880121022,0.4012440000078641,0.3712044590502046,2.0042592880199663,0.40179369994439185,0.37145467998925596,2.406052987964358,0.3843108470318839,0.3556172050302848,2.790363834996242,0.40128158300649375,0.3723602180252783,3.191645418002736,0.3504813070176169,0.3213395799975842,3.5421267250203528,0.434664697968401,0.40496515500126407,3.9767914229887538,0.4839379619807005,0.4537826250307262,4.460729384969454,0.4187670950195752,0.38889448798727244,4.8794964799890295,0.3674964400124736,0.3343814249965362,5.246992920001503,0.3172546880086884,0.28800934803439304,5.5642476080101915,,,,,,,,,,,j,1,0.5400331069831736,f,1,5.735976043040864,None,,,,,,,,,,,,,,,,,,,,,,,,,,,,,6,001,1,2,2018_Oct_02_0940,Dissertation,60.3364066091653,
,,None,,,Verdadero,Falso,f,None,congruent_right,Me gusta vivir en la ciudad de Washington porque tiene mucha historia,None,None,None,None,j,None,0,Estoy contento viviendo en D.C.,,,,,,,,,,,,,,,,,0,0,0,0,0,4,4,3,,,,,,,,,,,,,,,,,,,,,,,,,,0.5679608900099993,0.5512984219822101,0.5679608900099993,0.40081650798674673,0.372385527996812,0.968777397996746,0.40118197997799143,0.3687005419633351,1.3699593779747374,0.3844137120177038,0.35496974998386577,1.7543730899924412,0.36772070499137044,0.33470020798267797,2.1220937949838117,0.36761048500193283,0.33466489997226745,2.4897042799857445,0.38419322500703856,0.35557459999108687,2.873897504992783,0.3669232749962248,0.3380423080525361,3.240820779989008,0.4007098699803464,0.3715122819994576,3.6415306499693543,0.6028767080279067,0.5701876870007254,4.244407357997261,0.43353308201767504,0.40497632196638733,4.677940440014936,0.3687831499846652,0.33898786996724084,5.046723589999601,,,,,,,,,,,,,,j,1,0.7690638029598631,f,1,3.393665587005671,None,,,,,,,,,,,,,,,,,,,,,,,,,,,,,6,001,1,2,2018_Oct_02_0940,Dissertation,60.3364066091653,
,,None,,,Verdadero,Falso,j,None,incongruent_left,Mi estación preferida es el verano,None,None,None,None,f,None,0,Me gusta el invierno más que las otras estaciones.,,,,,,,,,,,,,,,,,0,0,0,0,0,5,5,1,,,,,,,,,,,,,,,,,,,,,,,,,,0.5837923549697734,0.5760884680203162,0.5837923549697734,0.4349257369758561,0.4021600100095384,1.0187180919456296,0.41757363302167505,0.38932793302228674,1.4362917249673046,0.6846293220296502,0.6572219849913381,2.120921046996955,0.40135689498856664,0.3728242869838141,2.5222779419855215,0.417624439985957,0.3885879800072871,2.9399023819714785,,,,,,,,,,,,,,,,,,,,,,,,,,,,,,,,f,1,0.690003594965674,j,1,2.879292664991226,None,,,,,,,,,,,,,,,,,,,,,,,,,,,,,6,001,1,2,2018_Oct_02_0940,Dissertation,60.3364066091653,
,,,,,,,,,,,,,,,,,,,,,,,,,,,,,,,,,,,0,0,0,0,,,,,,,,,,,,,,,,,,,,,,,,,,,,,,,,,,,,,,,,,,,,,,,,,,,,,,,,,,,,,,,,,,,,,,,,,,,,,,,,,,,,,,,,,,,,,,,,,,,,,,,,,,,,,,,,,,6,001,1,2,2018_Oct_02_0940,Dissertation,60.3364066091653,
,,,,,,,,,,,,,,,,,,,,,,,,,,,,,,,,,,,,,,,,,,,,,,,,,,,,,,,,,,,,,,,,,,,,,,,,,,,,,,,,,,,,,,,,,,,,,,,,,,,,,,,,,,,,,,,,,,,,,,,,,,,,space,7.391511346970219,,,,,,,,,,,,,,,,,,,,,,,,,,,6,001,1,2,2018_Oct_02_0940,Dissertation,60.3364066091653,
,,0,,,Verdadero,Falso,f,A,single_right,Mi hermana guardó en su celular el número del chico guapo,0,0,0,1,j,0,208,A mi hermana le gustaría salir con el chico.,,,,,,,,,,,,,,,,,,,,,,,,,0,0,0,0,0,0,0,37,,,,,,,,,,,,,,,,,,0.534557054983452,0.5157310549984686,0.534557054983452,0.46780205803224817,0.4353252829751,1.0023591130157001,0.35049458499997854,0.32216451194835827,1.3528536980156787,0.41838730697054416,0.38629851798759773,1.7712410049862228,0.5497793329996057,0.5198215400450863,2.3210203379858285,0.4365514070377685,0.40672270697541535,2.757571745023597,0.6340804349747486,0.6056503920117393,3.3916521799983457,0.4012152280192822,0.3714381780009717,3.792867408017628,0.4844500519684516,0.45506114000454545,4.2773174599860795,0.3677622150280513,0.3378488319576718,4.645079675014131,0.4510716649820097,0.42177683202316985,5.0961513399961405,,,,,,,,,,,,,,,,,j,1,0.38984045200049877,j,0,3.331755849008914,,,,None,None,,,,,,,,,,,,,,,,,,,,,,,,,6,001,1,2,2018_Oct_02_0940,Dissertation,60.3364066091653,
,,0,,,Verdadero,Falso,j,A,incongruent_right,Después de lavar la ropa Antonio prepara la cena,0,0,1,0,j,0,215,Antonio hace varios deberes por la noche.,,,,,,,,,,,,,,,,,,,,,,,,,0,0,0,0,0,1,1,44,,,,,,,,,,,,,,,,,,0.5506896050064825,0.541423198999837,0.5506896050064825,0.43477963196346536,0.4058098469977267,0.9854692369699478,0.38397867302410305,0.35490463802125305,1.3694479099940509,0.43479747499804944,0.40484660502988845,1.8042453849921003,0.3841367799905129,0.35548583703348413,2.188382164982613,0.4183906670077704,0.38837821199558675,2.6067728319903836,0.6010022999835201,0.5729907900094986,3.2077751319739036,0.3339124830090441,0.30470251699443907,3.5416876149829477,0.3508485850179568,0.32111183705274016,3.8925362000009045,,,,,,,,,,,,,,,,,,,,,,,j,1,0.7246922050253488,j,1,8.210268466966227,,,,None,None,,,,,,,,,,,,,,,,,,,,,,,,,6,001,1,2,2018_Oct_02_0940,Dissertation,60.3364066091653,
,,0,,,Verdadero,Falso,j,A,incongruent_left,Los alumnos metieron la prueba que la maestra les dio en sus bolsas antes de irse,0,1,1,0,f,0,140,La maestra se quedó con las pruebas.,,,,,,,,,,,,,,,,,,,,,,,,,0,0,0,0,0,2,2,29,,,,,,,,,,,,,,,,,,0.5842966149793938,0.5702479740139097,0.5842966149793938,0.41707126301480457,0.37182200502138585,1.0013678779941984,0.3681255900301039,0.3353878370253369,1.3694934680243023,0.3843241319991648,0.35160930699203163,1.753817600023467,0.7187292149756104,0.6901624900056049,2.4725468149990775,0.4180209080222994,0.39002707198960707,2.890567723021377,0.38414191198535264,0.355366799980402,3.2747096350067295,0.3838646580115892,0.3548042270122096,3.6585742930183187,0.4015105149592273,0.3716706470004283,4.060084807977546,0.45078479702351615,0.42243955499725416,4.510869605001062,0.40147333999630064,0.3733278280124068,4.912342944997363,0.45072808500844985,0.422077321971301,5.363071030005813,0.4177081999951042,0.3888861850136891,5.780779230000917,,,,0.6516604949720204,0.606432227010373,6.432439724972937,,,,,f,1,0.47043087001657113,f,0,6.0888339600060135,,,,None,None,0.4688255800283514,0.43933957698754966,6.901265305001289,0.4505617899703793,0.4218961800215766,7.351827094971668,,,,,,,,,,,,,,,,,,,6,001,1,2,2018_Oct_02_0940,Dissertation,60.3364066091653,
,,1,,,Verdadero,Falso,f,A,congruent_left,La profesora dejó la galleta que compró en el mercado en su cartera durante la clase,1,1,0,0,f,0,13,La galleta estaba en la cartera durante la clase.,,,,,,,,,,,,,,,,,,,,,,,,,0,0,0,0,0,3,3,12,,,,,,,,,,,,,,,,,,0.5844046349520795,0.5697278050356545,0.5844046349520795,0.40078478201758116,0.37130509299458936,0.9851894169696607,0.41821888502454385,0.3888811680371873,1.4034083019942045,0.8687662379816175,0.8402227500337176,2.272174539975822,0.43480988702503964,0.40594103798503056,2.7069844270008616,1.036116017960012,1.0072517780354246,3.7431004449608736,0.5498753749998286,0.5197597150108777,4.292975819960702,0.6199569700402208,0.5891315070330165,4.912932790000923,0.433839104953222,0.4051690549822524,5.346771894954145,0.40126075700391084,0.3715446800342761,5.748032651958056,0.7859104800154455,0.7542969250353053,6.533943131973501,0.4164778629783541,0.3878297099727206,6.950420994951855,0.4011863100458868,0.36933905398473144,7.351607304997742,,,,0.9367956999922171,0.9075743569992483,8.28840300498996,,,,,f,1,0.48779308499069884,f,1,3.0239241299568675,,,,None,None,0.46790419495664537,0.43949908495415,8.756307199946605,0.48447385005420074,0.45421664003515616,9.240781050000805,,,,,,,,,,,,,,,,,,,6,001,1,2,2018_Oct_02_0940,Dissertation,60.3364066091653,
,,1,,,Verdadero,Falso,j,A,congruent_right,El pastel en el refrigerador es para el cumpleaños de Tomás,0,0,0,0,j,0,207,Tomás no cumple años pronto.,,,,,,,,,,,,,,,,,,,,,,,,,0,0,0,0,0,4,4,36,,,,,,,,,,,,,,,,,,0.6011283650295809,0.5866587330237962,0.6011283650295809,0.5179375750012696,0.48894550203112885,1.1190659400308505,0.702134909981396,0.6729837250313722,1.8212008500122465,0.3835924650193192,0.3546341970213689,2.2047933150315657,0.4354842570028268,0.4017498199827969,2.6402775720343925,0.5679805899853818,0.5393591600004584,3.2082581620197743,0.3673810149775818,0.3378025720012374,3.575639176997356,0.4679210900212638,0.43884944199817255,4.04356026701862,0.40139138500671834,0.37232547003077343,4.444951652025338,0.5007796279969625,0.4746700320392847,4.945731280022301,0.401738420012407,0.3692906550131738,5.347469700034708,,,,,,,,,,,,,,,,,j,1,0.5910703089903109,j,1,4.579696894972585,,,,None,None,,,,,,,,,,,,,,,,,,,,,,,,,6,001,1,2,2018_Oct_02_0940,Dissertation,60.3364066091653,
,,0,,,Verdadero,Falso,f,A,single_right,a,0,0,0,1,j,0,310,a,,,,,,,,,,,,,,,,,,,,,,,,,0,0,0,0,0,5,5,69,,,,,,,,,,,,,,,,,,,,,,,,,,,,,,,,,,,,,,,,,,,,,,,,,,,,,,,,,,,,,,,,,,,j,1,0.49016340501839295,None,0,,,,,None,None,,,,,,,,,,,,,,,,,,,,,,,,,6,001,1,2,2018_Oct_02_0940,Dissertation,60.3364066091653,
,,1,,,Verdadero,Falso,f,A,congruent_right,a,0,0,0,0,j,0,312,a,,,,,,,,,,,,,,,,,,,,,,,,,0,0,0,0,0,6,6,71,,,,,,,,,,,,,,,,,,,,,,,,,,,,,,,,,,,,,,,,,,,,,,,,,,,,,,,,,,,,,,,,,,,j,1,0.4554273370304145,None,0,,,,,None,None,,,,,,,,,,,,,,,,,,,,,,,,,6,001,1,2,2018_Oct_02_0940,Dissertation,60.3364066091653,
,,0,,,Verdadero,Falso,j,A,incongruent_right,La señora insertó la tarjeta que su pareja le dejó en su cartera en la máquina para pagar,1,1,1,0,j,1,19,La mujer puso la tarjeta en su cartera.,,,,,,,,,,,,,,,,,,,,,,,,,0,0,0,0,0,7,7,18,,,,,,,,,,,,,,,,,,0.5666584179853089,0.5519175909576006,0.5666584179853089,0.41909958503674716,0.36886893498012796,0.9857580030220561,0.45058996201260015,0.4217800199985504,1.4363479650346562,0.5013481350033544,0.47157003497704864,1.9376961000380106,0.38473283499479294,0.35553641500882804,2.3224289350328036,0.3840525349951349,0.35351759096374735,2.7064814700279385,0.5346217799815349,0.5018438569968566,3.2411032500094734,0.4011711400235072,0.37214836495695636,3.6422743900329806,0.3513575899996795,0.3226428870111704,3.99363198003266,0.4343408379936591,0.388016129960306,4.427972818026319,0.46781126700807363,0.43881830997997895,4.895784085034393,0.5187300199759193,0.49085642403224483,5.414514105010312,0.3839399400167167,0.3558975019841455,5.798454045027029,,,,0.7517812050064094,0.7229325299849734,6.550235250033438,,,,,j,1,0.5259226449998096,j,1,9.225144274998456,,,,None,None,0.48340195999480784,0.4537106250063516,7.033637210028246,0.43556643498595804,0.4049222129979171,7.469203645014204,1.0030798179795966,0.9737913180142641,8.4722834629938,0.4341849720221944,0.40548810799373314,8.906468435015995,,,,,,,,,,,,,6,001,1,2,2018_Oct_02_0940,Dissertation,60.3364066091653,
,,0,,,Verdadero,Falso,j,A,incongruent_left,La pantalla de mi computadora se me rompió,0,0,1,0,f,0,221,Mi computadora está en una condición perfecta.,,,,,,,,,,,,,,,,,,,,,,,,,0,0,0,0,0,8,8,50,,,,,,,,,,,,,,,,,,0.5673357599880546,0.553064969019033,0.5673357599880546,0.4335135949659161,0.406067559029907,1.0008493549539708,0.7864215970039368,0.7578737720032223,1.7872709519579075,0.40120354504324496,0.36855803499929607,2.1884744970011525,0.40122894500382245,0.37337350501911715,2.589703442004975,0.6675752779701725,0.6230604299926199,3.2572787199751474,0.43517279002116993,0.4069219119846821,3.6924515099963173,0.3672966419835575,0.3346833320101723,4.059748151979875,,,,,,,,,,,,,,,,,,,,,,,,,,f,1,0.535293992026709,j,1,2.3565705899964087,,,,None,None,,,,,,,,,,,,,,,,,,,,,,,,,6,001,1,2,2018_Oct_02_0940,Dissertation,60.3364066091653,
,,1,,,Verdadero,Falso,f,A,congruent_left,El pescado está listo para comer,0,0,0,0,f,0,229,Vamos a comer pescado.,,,,,,,,,,,,,,,,,,,,,,,,,0,0,0,0,0,9,9,58,,,,,,,,,,,,,,,,,,0.6183480170438997,0.6132381240022369,0.6183480170438997,0.4174460169742815,0.38651062099961564,1.0357940340181813,0.6860732050263323,0.6571973019745201,1.7218672390445136,0.45121786795789376,0.4227791849989444,2.1730851070024073,0.6183154270402156,0.5897247820394114,2.791400534042623,0.40101653296733275,0.37176597997313365,3.1924170670099556,,,,,,,,,,,,,,,,,,,,,,,,,,,,,,,,f,1,0.569268103048671,f,1,6.770997823041398,,,,None,None,,,,,,,,,,,,,,,,,,,,,,,,,6,001,1,2,2018_Oct_02_0940,Dissertation,60.3364066091653,
,,0,,,Verdadero,Falso,f,A,single_left,a,0,0,0,1,f,0,301,a,,,,,,,,,,,,,,,,,,,,,,,,,0,0,0,0,0,10,10,60,,,,,,,,,,,,,,,,,,,,,,,,,,,,,,,,,,,,,,,,,,,,,,,,,,,,,,,,,,,,,,,,,,,f,1,0.8192062249872833,None,0,,,,,None,None,,,,,,,,,,,,,,,,,,,,,,,,,6,001,1,2,2018_Oct_02_0940,Dissertation,60.3364066091653,
,,0,,,Verdadero,Falso,j,A,incongruent_left,Mis amigas se reunieron en la escuela para ir a jugar fútbol,0,0,1,0,f,0,209,Jugaron béisbol mis amigas.  ,,,,,,,,,,,,,,,,,,,,,,,,,0,0,0,0,0,11,11,38,,,,,,,,,,,,,,,,,,0.5347927180118859,0.526200144959148,0.5347927180118859,0.417945655004587,0.3891586129902862,0.9527383730164729,0.5339729799889028,0.5040795120294206,1.4867113530053757,0.4514075900078751,0.4220150400069542,1.9381189430132508,0.5686240299837664,0.5367488509509712,2.506742972997017,0.31753097497858107,0.2889433749951422,2.8242739479755983,0.4183695780229755,0.38862007699208334,3.2426435259985738,0.43422559497412294,0.4012266399804503,3.6768691209726967,0.3505655250046402,0.32238610001513734,4.027434645977337,0.41826862999005243,0.3882046699873172,4.445703275967389,0.4005562399979681,0.37166303500998765,4.846259515965357,0.45175960002234206,0.4015742029878311,5.2980191159876995,,,,,,,,,,,,,,f,1,0.5706292249960825,j,1,3.2470754149835557,,,,None,None,,,,,,,,,,,,,,,,,,,,,,,,,6,001,1,2,2018_Oct_02_0940,Dissertation,60.3364066091653,
,,1,,,Verdadero,Falso,f,A,congruent_right,Elena colocó la tarea que la Sra. Sánchez le dejó encima de su mesa en su cuaderno sin mirar la nota,1,1,0,0,j,0,16,A Elena no le importó su nota.,,,,,,,,,,,,,,,,,,,,,,,,,0,0,0,0,0,12,12,15,,,,,,,,,,,,,,,,,,0.5340577719616704,0.5174855339573696,0.5340577719616704,0.3658339690300636,0.33649905101628974,0.899891740991734,0.3692484910134226,0.33914614998502657,1.2691402320051566,0.501363469986245,0.4732142149587162,1.7705037019914016,0.6181089750025421,0.5880689249606803,2.3886126769939438,0.4852650999673642,0.4557697919663042,2.873877776961308,0.3506413850118406,0.3213022929849103,3.2245191619731486,0.35126970801502466,0.31915530998958275,3.5757888699881732,0.45061821199487895,0.42218567500822246,4.026407081983052,0.3506875450257212,0.32243599701905623,4.377094627008773,0.3849878399632871,0.35591809800826013,4.7620824669720605,0.41759314498631284,0.3848260350059718,5.179675611958373,0.43461660301545635,0.40499818295938894,5.61429221497383,,,,0.3505015019909479,0.3215361249749549,5.964793716964778,,,,,j,1,0.455587389995344,f,1,5.770122574991547,,,,None,None,0.38385876099346206,0.3535813359776512,6.34865247795824,0.3686396240373142,0.3354390099993907,6.717292101995554,0.334385555004701,0.3058108749683015,7.051677657000255,0.7504557709908113,0.7214785430114716,7.802133427991066,0.4018509690067731,0.3677064300281927,8.20398439699784,0.5519899179926142,0.5220506149926223,8.755974314990453,0.3832680649938993,0.35440457199001685,9.139242379984353,,,,6,001,1,2,2018_Oct_02_0940,Dissertation,60.3364066091653,
,,1,,,Verdadero,Falso,f,A,congruent_left,El mesero vació el vino que los clientes dejaron en la mesa en el fregadero después de que se fueron,1,1,0,0,f,0,17,Los clientes se fueron sin tomar todo el vino. ,,,,,,,,,,,,,,,,,,,,,,,,,0,0,0,0,0,13,13,16,,,,,,,,,,,,,,,,,,0.5002034200006165,0.4789361339644529,0.5002034200006165,0.40105004800716415,0.371761090005748,0.9012534680077806,0.4015600719721988,0.3721793700242415,1.3028135399799794,0.8016664800234139,0.7730803299928084,2.1044800200033933,0.3835402660188265,0.3524203770211898,2.48802028602222,0.452536083990708,0.4185322650009766,2.940556370012928,0.6179734579636715,0.5894866000162438,3.5585298279765993,0.5686676370096393,0.5226406150031835,4.127197464986239,1.0522147029987536,1.0232929469784722,5.179412167984992,0.43501204199856147,0.4053455099929124,5.614424209983554,0.40108193299965933,0.36873168498277664,6.015506142983213,0.4170718400273472,0.38973659300245345,6.43257798301056,0.4185357100213878,0.38918002805439755,6.851113693031948,,,,0.3342138569569215,0.30172090796986595,7.18532754998887,,,,,f,1,0.4678510599769652,f,1,2.8116592350415885,,,,None,None,0.41764399799285457,0.38531908503500745,7.602971547981724,0.6685234199976549,0.6395871299901046,8.271494967979379,0.43384942202828825,0.4011325350147672,8.705344390007667,0.3682041249703616,0.3384216179838404,9.073548514978029,0.3508170950226486,0.3178175470093265,9.424365610000677,0.3512114330078475,0.3226310519967228,9.775577043008525,,,,,,,6,001,1,2,2018_Oct_02_0940,Dissertation,60.3364066091653,
,,0,,,Verdadero,Falso,f,A,single_left,Mi padre me partió el sándwich en dos para llevarlo a clase,0,0,0,1,f,0,222,Me compré la comida en la escuela. ,,,,,,,,,,,,,,,,,,,,,,,,,0,0,0,0,0,14,14,51,,,,,,,,,,,,,,,,,,0.5176783250062726,0.5034505150397308,0.5176783250062726,0.41769837198080495,0.38526000001002103,0.9353766969870776,0.38457082002423704,0.35574398800963536,1.3199475170113146,0.4008857680018991,0.3722726770211011,1.7208332850132138,0.45080913696438074,0.4222662629908882,2.1716424219775945,0.417932020034641,0.3881274330196902,2.5895744420122355,0.5832885439740494,0.5541672389954329,3.172862985986285,0.352999949012883,0.31844417902175337,3.525862934999168,0.36745680699823424,0.33905769704142585,3.893319741997402,0.3669144579907879,0.33810704498318955,4.26023419998819,0.5847928170114756,0.5510878349887207,4.845027016999666,0.45172995002940297,0.4225874980329536,5.296756967029069,,,,,,,,,,,,,,f,1,0.43933062499854714,j,0,3.8318458250141703,,,,None,None,,,,,,,,,,,,,,,,,,,,,,,,,6,001,1,2,2018_Oct_02_0940,Dissertation,60.3364066091653,
,,0,,,Verdadero,Falso,f,A,single_left,El mecánico estará de vacaciones solo unos días,0,0,0,1,f,0,230,El mecánico viaja solo.,,,,,,,,,,,,,,,,,,,,,,,,,0,0,0,0,0,15,15,59,,,,,,,,,,,,,,,,,,0.4837897320394404,0.4681122949696146,0.4837897320394404,0.40032282494939864,0.3714438599999994,0.8841125569888391,0.4686809130362235,0.43907822004985064,1.3527934700250626,0.4676990419975482,0.44155898003373295,1.8204925120226108,0.3840246030013077,0.3550449530011974,2.2045171150239184,0.8023743520025164,0.7695231429534033,3.006891467026435,0.7356196179753169,0.7066448199911974,3.742511085001752,0.38328801200259477,0.35454065597150475,4.1257990970043465,,,,,,,,,,,,,,,,,,,,,,,,,,f,1,0.5071974019519985,j,0,3.736944977019448,,,,None,None,,,,,,,,,,,,,,,,,,,,,,,,,6,001,1,2,2018_Oct_02_0940,Dissertation,60.3364066091653,
,,0,,,Verdadero,Falso,j,A,incongruent_left,Antes de que cantaran esa canción no era muy conocida ,1,1,1,0,f,1,6,Todos ya se sabían la canción antes de la fiesta.,,,,,,,,,,,,,,,,,,,,,,,,,0,0,0,0,0,16,16,5,,,,,,,,,,,,,,,,,,0.5669448780245148,0.5486733249854296,0.5669448780245148,0.4344467120245099,0.40565742301987484,1.0013915900490247,0.3684722500038333,0.33984186802990735,1.369863840052858,0.43444890197133645,0.40601683501154184,1.8043127420241944,0.950994674989488,0.9206795059726574,2.7553074170136824,0.4192225300357677,0.38829512300435454,3.17452994704945,0.6177427849615924,0.5886964499950409,3.7922727320110425,0.3849737180280499,0.3555222219438292,4.1772464500390925,0.38343831500969827,0.35100986500037834,4.560684765048791,0.33426604699343443,0.3197774750296958,4.894950812042225,,,,,,,,,,,,,,,,,,,,f,1,0.6703300690278411,j,1,3.012943728012033,,,,None,None,,,,,,,,,,,,,,,,,,,,,,,,,6,001,1,2,2018_Oct_02_0940,Dissertation,60.3364066091653,
,,1,,,Verdadero,Falso,f,A,congruent_left,Jimena duerme bien en la cama en su cuarto,0,0,0,0,f,0,205,La cama de Jimena es cómoda.,,,,,,,,,,,,,,,,,,,,,,,,,0,0,0,0,0,17,17,34,,,,,,,,,,,,,,,,,,0.6017732010222971,0.5920924249803647,0.6017732010222971,0.3832019949913956,0.352082887024153,0.9849751960136928,0.5017186690238304,0.47048365301452577,1.4866938650375232,0.45109809696441516,0.420079778006766,1.9377919620019384,0.4020403799950145,0.3721447290154174,2.339832341996953,0.35057323100045323,0.3168278799857944,2.690405572997406,0.3353745720232837,0.32241429801797494,3.02578014502069,0.33344089501770213,0.30561902199406177,3.359221040038392,0.3511563159991056,0.32130768802016973,3.7103773560374975,,,,,,,,,,,,,,,,,,,,,,,f,1,0.5392698749783449,f,1,1.792744965001475,,,,None,None,,,,,,,,,,,,,,,,,,,,,,,,,6,001,1,2,2018_Oct_02_0940,Dissertation,60.3364066091653,
,,0,,,Verdadero,Falso,f,A,incongruent_right,Después de que llegué el maratón empezó inmediatamente,0,1,1,0,j,0,121,Llegué para ver el inicio de la carrera.,,,,,,,,,,,,,,,,,,,,,,,,,0,0,0,0,0,18,18,20,,,,,,,,,,,,,,,,,,0.467394606966991,0.4579995340318419,0.467394606966991,0.4010798200033605,0.37220479000825435,0.8684744269703515,0.351287527999375,0.3225779180065729,1.2197619549697265,0.3506759370211512,0.31872559199109674,1.5704378919908777,0.4498970980057493,0.42019642802188173,2.020334989996627,0.35122626199154183,0.32183860801160336,2.371561251988169,0.6007211990072392,0.5719092980143614,2.972282450995408,0.45150167599786073,0.4205162650323473,3.4237841269932687,,,,,,,,,,,,,,,,,,,,,,,,,,j,1,0.47145570401335135,f,1,9.709837358037475,,,,None,None,,,,,,,,,,,,,,,,,,,,,,,,,6,001,1,2,2018_Oct_02_0940,Dissertation,60.3364066091653,
,,0,,,Verdadero,Falso,j,A,incongruent_right,Mientras el padre leía la biblia antigua se partió en dos ,1,1,1,0,j,1,7,La biblia se quedó intacta.,,,,,,,,,,,,,,,,,,,,,,,,,0,0,0,0,0,19,19,6,,,,,,,,,,,,,,,,,,0.5347107270499691,0.5147474950063042,0.5347107270499691,0.4520196319790557,0.41867447196273133,0.9867303590290248,0.3672379520139657,0.33898181695258245,1.3539683110429905,0.3673519349540584,0.3384610349894501,1.721320245997049,0.351818640017882,0.3188002949464135,2.073138886014931,0.5004172979970463,0.4715436370461248,2.573556184011977,0.38391338498331606,0.35022155300248414,2.9574695689952932,0.5184493020060472,0.4890304639702663,3.4759188710013404,0.4339421550394036,0.40374286100268364,3.909861026040744,0.5691807830007747,0.5399316280381754,4.479041809041519,0.4349892019527033,0.40568900998914614,4.914031010994222,,,,,,,,,,,,,,,,,j,1,0.47507919801864773,j,1,3.2628602770273574,,,,None,None,,,,,,,,,,,,,,,,,,,,,,,,,6,001,1,2,2018_Oct_02_0940,Dissertation,60.3364066091653,
,,1,,,Verdadero,Falso,f,A,congruent_left,Justo después de bajarme el autobús falló de repente ,0,0,0,0,f,0,213,Deben mandar el autobús al mecánico.,,,,,,,,,,,,,,,,,,,,,,,,,0,0,0,0,0,20,20,42,,,,,,,,,,,,,,,,,,0.6030813119723462,0.5920336630078964,0.6030813119723462,0.40075253800023347,0.3683356220135465,1.0038338499725796,0.4006080499966629,0.3717103369999677,1.4044418999692425,0.6353912950144149,0.6035096520208754,2.0398331949836574,0.5682928769965656,0.5388026500004344,2.608126071980223,0.4498052200069651,0.41732208197936416,3.057931291987188,0.6351266350247897,0.6020561250043102,3.693057927011978,0.6014749640016817,0.5722199869924225,4.2945328910136595,0.36759024200728163,0.3382893970119767,4.662123133020941,,,,,,,,,,,,,,,,,,,,,,,f,1,0.5559403699589893,f,1,4.061706239008345,,,,None,None,,,,,,,,,,,,,,,,,,,,,,,,,6,001,1,2,2018_Oct_02_0940,Dissertation,60.3364066091653,
,,1,,,Verdadero,Falso,f,A,congruent_left,Antes de que bebieran el vino se volvió vinagre ,1,1,0,0,f,0,5,No tomaron vino porque se había echado a perder.,,,,,,,,,,,,,,,,,,,,,,,,,0,0,0,0,0,21,21,4,,,,,,,,,,,,,,,,,,0.4673854499706067,0.4555583330220543,0.4673854499706067,0.41656445304397494,0.3874294520355761,0.8839499030145817,0.3677901799674146,0.33887163299368694,1.2517400829819962,0.36900917399907485,0.33964344998821616,1.620749256981071,1.286343518004287,1.2583087949897163,2.907092774985358,0.3827197200153023,0.3531295240391046,3.2898124950006604,0.4694155270117335,0.44153853005263954,3.759228022012394,0.43423342995811254,0.4069128669798374,4.1934614519705065,0.6679710000171326,0.6362168460036628,4.861432451987639,,,,,,,,,,,,,,,,,,,,,,,f,1,0.6215365320094861,j,0,8.523721439996734,,,,None,None,,,,,,,,,,,,,,,,,,,,,,,,,6,001,1,2,2018_Oct_02_0940,Dissertation,60.3364066091653,
,,0,,,Verdadero,Falso,f,A,incongruent_right,Jaime metió el chaleco que su pareja dejó en el clóset cuando regresaron,0,1,1,0,j,0,133,La pareja de Jaime no colgó su chaleco cuando volvió. ,,,,,,,,,,,,,,,,,,,,,,,,,0,0,0,0,0,22,22,26,,,,,,,,,,,,,,,,,,0.6350740329944529,0.6258728289976716,0.6350740329944529,0.4181413479964249,0.38809561799280345,1.0532153809908777,0.3506217719987035,0.3215064980322495,1.4038371529895812,0.4008389789960347,0.3705066699767485,1.804676131985616,0.45180060097482055,0.4228232209570706,2.2564767329604365,0.4514368550153449,0.4183359880116768,2.7079135879757814,0.33418290002737194,0.30685619299765676,3.0420964880031534,0.33427930501056835,0.3030834990204312,3.3763757930137217,0.31751004996476695,0.28904748003697023,3.6938858429784887,0.3995098670129664,0.36956447397824377,4.093395709991455,0.3853043830022216,0.3556836969801225,4.478700092993677,0.418540048005525,0.3885846280027181,4.897240140999202,0.41629244398791343,0.3868736080476083,5.313532584987115,,,,,,,,,,,j,1,0.45420928596286103,f,1,4.811691965034697,,,,None,None,,,,,,,,,,,,,,,,,,,,,,,,,6,001,1,2,2018_Oct_02_0940,Dissertation,60.3364066091653,
,,0,,,Verdadero,Falso,f,A,single_left,a,0,0,0,1,f,0,305,a,,,,,,,,,,,,,,,,,,,,,,,,,0,0,0,0,0,23,23,64,,,,,,,,,,,,,,,,,,,,,,,,,,,,,,,,,,,,,,,,,,,,,,,,,,,,,,,,,,,,,,,,,,,f,1,0.3899956480017863,None,0,,,,,None,None,,,,,,,,,,,,,,,,,,,,,,,,,6,001,1,2,2018_Oct_02_0940,Dissertation,60.3364066091653,
,,0,,,Verdadero,Falso,j,A,single_left,Mis hijas están saltando la cuerda en el jardín,0,0,0,1,f,0,226,A mis hijas no les gusta jugar en el jardín.,,,,,,,,,,,,,,,,,,,,,,,,,0,0,0,0,0,24,24,55,,,,,,,,,,,,,,,,,,0.5511153200059198,0.5431316770263948,0.5511153200059198,0.41700920002767816,0.3862700210302137,0.968124520033598,0.40201486297883093,0.37175750598544255,1.3701393830124289,0.36649482999928296,0.33799948799423873,1.7366342130117118,0.3840947730350308,0.3556750100106001,2.1207289860467426,0.6523162589874119,0.6234159200103022,2.7730452450341545,0.46751161600695923,0.43655931897228584,3.2405568610411137,0.41862546297488734,0.3892019059858285,3.659182324016001,0.36790194403147325,0.3395016350550577,4.027084268047474,,,,,,,,,,,,,,,,,,,,,,,f,1,0.3551416280097328,j,1,2.707839487993624,,,,None,None,,,,,,,,,,,,,,,,,,,,,,,,,6,001,1,2,2018_Oct_02_0940,Dissertation,60.3364066091653,
,,0,,,Verdadero,Falso,f,A,incongruent_right,El mecánico arregló el carro rápido,0,0,1,0,j,0,227,El mécanico trabaja de una manera eficiente.,,,,,,,,,,,,,,,,,,,,,,,,,0,0,0,0,0,25,25,56,,,,,,,,,,,,,,,,,,0.5333614950068295,0.5183865769649856,0.5333614950068295,0.3682994400151074,0.34057947201654315,0.9016609350219369,0.5164195239776745,0.48400668997783214,1.4180804589996114,0.870058860979043,0.8572647899854928,2.2881393199786544,0.39962397603085265,0.36857296800008044,2.687763296009507,0.553620339022018,0.5358814519713633,3.241383635031525,,,,,,,,,,,,,,,,,,,,,,,,,,,,,,,,j,1,0.49041715502971783,f,1,1.9927193849580362,,,,None,None,,,,,,,,,,,,,,,,,,,,,,,,,6,001,1,2,2018_Oct_02_0940,Dissertation,60.3364066091653,
,,0,,,Verdadero,Falso,f,A,single_right,a,0,0,0,1,j,0,306,a,,,,,,,,,,,,,,,,,,,,,,,,,0,0,0,0,0,26,26,65,,,,,,,,,,,,,,,,,,,,,,,,,,,,,,,,,,,,,,,,,,,,,,,,,,,,,,,,,,,,,,,,,,,j,1,0.555720211006701,None,0,,,,,None,None,,,,,,,,,,,,,,,,,,,,,,,,,6,001,1,2,2018_Oct_02_0940,Dissertation,60.3364066091653,
,,1,,,Verdadero,Falso,f,A,congruent_left,a,0,0,0,0,f,0,307,a,,,,,,,,,,,,,,,,,,,,,,,,,0,0,0,0,0,27,27,66,,,,,,,,,,,,,,,,,,,,,,,,,,,,,,,,,,,,,,,,,,,,,,,,,,,,,,,,,,,,,,,,,,,f,1,0.5736156000057235,None,0,,,,,None,None,,,,,,,,,,,,,,,,,,,,,,,,,6,001,1,2,2018_Oct_02_0940,Dissertation,60.3364066091653,
,,0,,,Verdadero,Falso,j,A,incongruent_left,Cuando la participante se rindió la respuesta le pareció obvia,0,1,1,0,f,0,128,La participante adivinó la respuesta correcta.,,,,,,,,,,,,,,,,,,,,,,,,,0,0,0,0,0,28,28,23,,,,,,,,,,,,,,,,,,0.4329474249971099,0.4198536860058084,0.4329474249971099,0.3843181629781611,0.35505033301888034,0.817265587975271,0.36809389700647444,0.33818091300781816,1.1853594849817455,0.6018541250377893,0.5731197280110791,1.7872136100195348,0.350597079959698,0.3045706229750067,2.137810689979233,0.41829565801890567,0.38929604698205367,2.5561063479981385,0.40104347199667245,0.3725561400060542,2.957149819994811,0.4343672929680906,0.40541481296531856,3.3915171129629016,0.38297001301543787,0.35304630297468975,3.7744871259783395,0.45282700401730835,0.42413567000767216,4.227314129995648,,,,,,,,,,,,,,,,,,,,f,1,0.5572067800094374,j,1,4.466266403032932,,,,None,None,,,,,,,,,,,,,,,,,,,,,,,,,6,001,1,2,2018_Oct_02_0940,Dissertation,60.3364066091653,
,,0,,,Verdadero,Falso,f,A,incongruent_right,a,0,0,1,0,j,0,315,a,,,,,,,,,,,,,,,,,,,,,,,,,0,0,0,0,0,29,29,74,,,,,,,,,,,,,,,,,,,,,,,,,,,,,,,,,,,,,,,,,,,,,,,,,,,,,,,,,,,,,,,,,,,j,1,0.4572780220187269,None,0,,,,,None,None,,,,,,,,,,,,,,,,,,,,,,,,,6,001,1,2,2018_Oct_02_0940,Dissertation,60.3364066091653,
,,0,,,Verdadero,Falso,f,A,single_left,a,0,0,0,1,f,0,314,a,,,,,,,,,,,,,,,,,,,,,,,,,0,0,0,0,0,30,30,73,,,,,,,,,,,,,,,,,,,,,,,,,,,,,,,,,,,,,,,,,,,,,,,,,,,,,,,,,,,,,,,,,,,f,1,0.389479664969258,None,0,,,,,None,None,,,,,,,,,,,,,,,,,,,,,,,,,6,001,1,2,2018_Oct_02_0940,Dissertation,60.3364066091653,
,,1,,,Verdadero,Falso,f,A,congruent_left,Los autobuses en Madrid tienen más de quince pies de altura ,0,0,0,0,f,0,225,Los autobuses madrileños son muy altos.,,,,,,,,,,,,,,,,,,,,,,,,,0,0,0,0,0,31,31,54,,,,,,,,,,,,,,,,,,0.6508967049885541,0.639046371972654,0.6508967049885541,0.40054950799094513,0.3716355150099844,1.0514462129794993,0.4177505869884044,0.38832572498358786,1.4691967999679036,0.384717058041133,0.35544429504079744,1.8539138580090366,0.4842949499725364,0.4552475870004855,2.338208807981573,0.418472021992784,0.38914302201010287,2.756680829974357,0.3007060930249281,0.27188737702090293,3.057386922999285,0.35053657001117244,0.32169519999297336,3.4079234930104576,0.3679600670002401,0.3383185850107111,3.7758835600106977,0.6341472649946809,0.6054039049777202,4.410030825005379,0.3680210000020452,0.33878371299942955,4.778051825007424,,,,,,,,,,,,,,,,,f,1,0.4049757850007154,f,1,2.9300543119898066,,,,None,None,,,,,,,,,,,,,,,,,,,,,,,,,6,001,1,2,2018_Oct_02_0940,Dissertation,60.3364066091653,
,,0,,,Verdadero,Falso,j,A,single_left,La participante brilló cuando ganó el maratón,0,0,0,1,f,0,218,La participante se quedó triste después del maratón.,,,,,,,,,,,,,,,,,,,,,,,,,0,0,0,0,0,32,32,47,,,,,,,,,,,,,,,,,,0.5837410550448112,0.5734703019843437,0.5837410550448112,0.3837645329767838,0.3549732610117644,0.967505588021595,0.5187342090066522,0.4902114190044813,1.4862397970282473,0.4011725679738447,0.3718429180444218,1.887412365002092,0.4347227819962427,0.4052589499624446,2.3221351469983347,0.40063051000470296,0.37226557300891727,2.7227656570030376,0.5186787330312654,0.48952741303946823,3.241444390034303,,,,,,,,,,,,,,,,,,,,,,,,,,,,,f,1,0.5219536179793067,j,1,1.8259678530157544,,,,None,None,,,,,,,,,,,,,,,,,,,,,,,,,6,001,1,2,2018_Oct_02_0940,Dissertation,60.3364066091653,
,,0,,,Verdadero,Falso,f,A,single_left,Mientras la esposa toca el piano el esposo lava los platos,0,0,0,1,f,0,214,La esposa sabe tocar un instrumento.,,,,,,,,,,,,,,,,,,,,,,,,,0,0,0,0,0,33,33,43,,,,,,,,,,,,,,,,,,0.500388118030969,0.4889447420137003,0.500388118030969,0.43469972198363394,0.40531005698721856,0.935087840014603,0.36746429302729666,0.33847799501381814,1.3025521330418997,0.38381324196234345,0.35411375301191583,1.686365375004243,0.3685205529909581,0.3380337380222045,2.054885927995201,0.33404700201936066,0.3050324619980529,2.388932930014562,0.3347608030308038,0.30559927999274805,2.7236937330453657,0.3173006969736889,0.28519243001937866,3.0409944300190546,0.45107639802154154,0.41832204797538,3.492070828040596,0.35099568200530484,0.32263829797739163,3.843066510045901,0.417238017951604,0.38854691496817395,4.260304527997505,,,,,,,,,,,,,,,,,f,1,0.5230873649707064,f,1,3.8479983099969104,,,,None,None,,,,,,,,,,,,,,,,,,,,,,,,,6,001,1,2,2018_Oct_02_0940,Dissertation,60.3364066091653,
,,1,,,Verdadero,Falso,f,A,congruent_right,Cuando era niña Inés saltaba la cuerda mucho ,0,0,0,0,j,0,211,Inés sabe saltar la cuerda.,,,,,,,,,,,,,,,,,,,,,,,,,0,0,0,0,0,34,34,40,,,,,,,,,,,,,,,,,,0.6178633650415577,0.6110702489968389,0.6178633650415577,0.3688118489808403,0.3397692859871313,0.986675214022398,0.33366793202003464,0.3048860100097954,1.3203431460424326,0.3682991630048491,0.33876015996793285,1.6886423090472817,0.4005066169775091,0.36892327800160274,2.089148926024791,0.3498213210259564,0.3186671850271523,2.4389702470507473,0.4346877619973384,0.4006826690165326,2.8736580090480857,0.3674931119894609,0.3376822880236432,3.2411511210375465,,,,,,,,,,,,,,,,,,,,,,,,,,j,1,0.4847102420171723,f,1,2.4100042349891737,,,,None,None,,,,,,,,,,,,,,,,,,,,,,,,,6,001,1,2,2018_Oct_02_0940,Dissertation,60.3364066091653,
,,0,,,Verdadero,Falso,j,A,incongruent_right,Los artistas van a donar tres estatuas a la ciudad,0,0,1,0,j,0,203,La ciudad va a comprar las estatuas.,,,,,,,,,,,,,,,,,,,,,,,,,0,0,0,0,0,35,35,32,,,,,,,,,,,,,,,,,,0.5339791529695503,0.5223532980307937,0.5339791529695503,0.4000858149956912,0.3716283480171114,0.9340649679652415,0.3849987499997951,0.35128396505024284,1.3190637179650366,0.3509078299975954,0.3217609350103885,1.669971547962632,0.3340181670500897,0.3050300500472076,2.0039897150127217,0.4017715429654345,0.37259839300531894,2.405761257978156,0.7847579200170003,0.761294367024675,3.1905191779951565,0.43467822001548484,0.4054653969942592,3.6251973980106413,0.4183369969832711,0.3885897829895839,4.043534394993912,0.34974536299705505,0.3207967079943046,4.3932797579909675,,,,,,,,,,,,,,,,,,,,j,1,0.4555365400156006,j,1,1.8431568990345113,,,,None,None,,,,,,,,,,,,,,,,,,,,,,,,,6,001,1,2,2018_Oct_02_0940,Dissertation,60.3364066091653,
,,0,,,Verdadero,Falso,j,A,single_left,Los estudiantes hicieron el trabajo en equipo en la biblioteca,0,0,0,1,f,0,202,Los estudiantes hicieron la tarea en el café.,,,,,,,,,,,,,,,,,,,,,,,,,0,0,0,0,0,36,36,31,,,,,,,,,,,,,,,,,,0.4828452449874021,0.4606968649895862,0.4828452449874021,0.3516274429857731,0.32232986704912037,0.8344726879731752,0.36791413999162614,0.33899582701269537,1.2023868279648013,0.3335834420286119,0.30571187898749486,1.5359702699934132,0.3515537479543127,0.32231554499594495,1.887524017947726,0.4340205420157872,0.4053176870220341,2.321544559963513,0.35045394400367513,0.3196596919442527,2.6719985039671883,0.4356915240059607,0.4057557280175388,3.107690027973149,0.4502923819818534,0.4217889250139706,3.5579824099550024,0.4184217880247161,0.3887276279856451,3.9764041979797184,,,,,,,,,,,,,,,,,,,,f,1,0.4383979249978438,j,1,1.6601201730081812,,,,None,None,,,,,,,,,,,,,,,,,,,,,,,,,6,001,1,2,2018_Oct_02_0940,Dissertation,60.3364066091653,
,,0,,,Verdadero,Falso,j,A,incongruent_left,Los chicos acomodaron la manta que sus padres les dejaron dentro del clóset antes de dormir,0,1,1,0,f,0,136,Los chicos no usaron la manta.,,,,,,,,,,,,,,,,,,,,,,,,,0,0,0,0,0,37,37,27,,,,,,,,,,,,,,,,,,0.5332205179729499,0.51755183696514,0.5332205179729499,0.36841640702914447,0.3390164580196142,0.9016369250020944,0.3169002549839206,0.2881613119971007,1.218537179986015,0.669154567993246,0.639910817029886,1.887691747979261,0.4505949600134045,0.4223479049978778,2.3382867079926655,0.38495940197026357,0.35637719003716484,2.723246109962929,0.4510759300319478,0.4228062750189565,3.174322039994877,0.3678930099704303,0.3390705999918282,3.542215049965307,0.40072729502571747,0.37298766401363537,3.9429423449910246,0.3842343050055206,0.35517655999865383,4.327176649996545,0.4009200179716572,0.3725432900246233,4.728096667968202,0.41732557700015604,0.3887441899860278,5.145422244968358,0.4512644280330278,0.4217588049941696,5.596686673001386,,,,0.40155096200760454,0.3716791449696757,5.998237635008991,,,,,f,1,0.5881118180113845,j,1,1.6765199769870378,,,,None,space,0.3842528279637918,0.3551870550145395,6.3824904629727826,0.43484450498363003,0.4054508800036274,6.817334967956413,,,,,,,,,,,,,,,,1.872438896971289,,,6,001,1,2,2018_Oct_02_0940,Dissertation,60.3364066091653,
,,1,,,Verdadero,Falso,f,A,congruent_right,a,0,0,0,0,j,0,308,a,,,,,,,,,,,,,,,,,,,,,,,,,0,0,0,0,0,38,38,67,,,,,,,,,,,,,,,,,,,,,,,,,,,,,,,,,,,,,,,,,,,,,,,,,,,,,,,,,,,,,,,,,,,j,1,0.5847288079676218,None,0,,,,,None,None,,,,,,,,,,,,,,,,,,,,,,,,,6,001,1,2,2018_Oct_02_0940,Dissertation,60.3364066091653,
,,0,,,Verdadero,Falso,j,A,incongruent_left,Cuando los jardineros terminaron el jardín quedó lleno de flores,1,1,1,0,f,1,10,Los jardineros todavía no acaban su trabajo.,,,,,,,,,,,,,,,,,,,,,,,,,0,0,0,0,0,39,39,9,,,,,,,,,,,,,,,,,,0.5844955400098115,0.5719438050291501,0.5844955400098115,0.40049644000828266,0.37261037999996915,0.9849919800180942,0.40127161296550184,0.3719448579940945,1.386263592983596,0.4512147720088251,0.42256575502688065,1.8374783649924211,0.6180800099973567,0.5891860099509358,2.455558374989778,0.3836438150028698,0.354232964979019,2.8392021899926476,0.4188074800185859,0.38539672998012975,3.2580096700112335,0.40091799502260983,0.3714840420288965,3.6589276650338434,0.5504188259947114,0.5209674970246851,4.209346491028555,0.4343612570082769,0.4011820069863461,4.643707748036832,,,,,,,,,,,,,,,,,,,,f,1,0.45195308298571035,j,1,2.2281515229842626,,,,None,None,,,,,,,,,,,,,,,,,,,,,,,,,6,001,1,2,2018_Oct_02_0940,Dissertation,60.3364066091653,
,,1,,,Verdadero,Falso,f,A,congruent_right,Los trabajadores colocaron los avisos que su jefe les dejó en la carpeta en la puerta de la oficina,1,1,0,0,j,0,20,Los avisos están colgados en la puerta.,,,,,,,,,,,,,,,,,,,,,,,,,0,0,0,0,0,40,40,19,,,,,,,,,,,,,,,,,,0.5163605970446952,0.49715361604467034,0.5163605970446952,0.36828051798511297,0.323041653027758,0.8846411150298081,0.6342721150140278,0.6059554649982601,1.518913230043836,0.6185471370117739,0.5720436829724349,2.13746036705561,0.5515654029441066,0.522853788046632,2.6890257699997164,0.4016309770522639,0.3731122110038996,3.0906567470519803,0.43400254799053073,0.40215986099792644,3.524659295042511,0.3346603169920854,0.2883115249569528,3.8593196120345965,0.41678253799909726,0.38775858195731416,4.276102150033694,0.36724950501229614,0.3356185540324077,4.64335165504599,0.4023771649808623,0.36840425501577556,5.045728820026852,0.33443738700589165,0.30572208703961223,5.380166207032744,0.4514977909857407,0.4189536719932221,5.831663998018485,,,,0.4504843089962378,0.4227609729859978,6.282148307014722,,,,,j,1,0.48577616800321266,f,1,3.31398287700722,,,,None,None,0.4181073750369251,0.3852056030300446,6.7002556820516475,0.38368206296581775,0.35436025500530377,7.083937745017465,0.7184225220116787,0.6887959450250491,7.802360267029144,0.35172342002624646,0.3222288450342603,8.15408368705539,0.33371098997304216,0.30513636994874105,8.487794677028432,,,,,,,,,,6,001,1,2,2018_Oct_02_0940,Dissertation,60.3364066091653,
,,0,,,Verdadero,Falso,f,A,incongruent_left,Este año cuando se reunieron el grito sonó por todo el vecindario,0,1,1,0,f,0,124,Hicieron un escándalo cuando se vieron.,,,,,,,,,,,,,,,,,,,,,,,,,0,0,0,0,0,41,41,21,,,,,,,,,,,,,,,,,,0.48378386499825865,0.4711596120032482,0.48378386499825865,0.4006792550208047,0.3674775179824792,0.8844631200190634,0.4184629280352965,0.3852830969844945,1.3029260480543599,0.43414396699517965,0.4015258469735272,1.7370700150495395,0.4004086179775186,0.37075149500742555,2.137478633027058,0.4343272980186157,0.4048894330044277,2.571805931045674,0.30171866196906194,0.2684831899823621,2.8735245930147357,0.3845282100373879,0.3550659319735132,3.2580528030521236,0.7341649360023439,0.7036110969493166,3.9922177390544675,0.4858964309678413,0.45714248600415885,4.478114170022309,0.41748334001749754,0.3894005619804375,4.895597510039806,0.3841444149729796,0.35526715498417616,5.279741925012786,,,,,,,,,,,,,,f,1,0.5396767780184746,f,1,4.734599162999075,,,,None,None,,,,,,,,,,,,,,,,,,,,,,,,,6,001,1,2,2018_Oct_02_0940,Dissertation,60.3364066091653,
,,1,,,Verdadero,Falso,f,A,congruent_left,Cuando la chica lava los platos se quedan bien sucios,1,1,0,0,f,0,9,La chica lava sin cuidado.,,,,,,,,,,,,,,,,,,,,,,,,,0,0,0,0,0,42,42,8,,,,,,,,,,,,,,,,,,0.5670602049794979,0.5555859400192276,0.5670602049794979,0.38366309000412,0.35396828001830727,0.950723294983618,0.3353893969906494,0.30554568499792367,1.2861126919742674,0.3673727000132203,0.3382558450102806,1.6534853919874877,0.29973182297544554,0.270707314950414,1.9532172149629332,0.38491561700357124,0.3553455849760212,2.3381328319665045,0.3350657100090757,0.30590992502402514,2.67319854197558,0.3336746300337836,0.3045659470371902,3.0068731720093638,0.3677028279635124,0.3392264650319703,3.374575999972876,0.3675260000163689,0.33825501799583435,3.742101999989245,,,,,,,,,,,,,,,,,,,,f,1,0.47259047999978065,f,1,2.076314738020301,,,,None,None,,,,,,,,,,,,,,,,,,,,,,,,,6,001,1,2,2018_Oct_02_0940,Dissertation,60.3364066091653,
,,1,,,Verdadero,Falso,f,A,congruent_left,a,0,0,0,0,f,0,303,a,,,,,,,,,,,,,,,,,,,,,,,,,0,0,0,0,0,43,43,62,,,,,,,,,,,,,,,,,,,,,,,,,,,,,,,,,,,,,,,,,,,,,,,,,,,,,,,,,,,,,,,,,,,f,1,0.521951238042675,None,0,,,,,None,None,,,,,,,,,,,,,,,,,,,,,,,,,6,001,1,2,2018_Oct_02_0940,Dissertation,60.3364066091653,
,,0,,,Verdadero,Falso,j,A,incongruent_left,Los novios montaron la mesa que su amigo les dejó en su porche en la cocina de su nuevo apartamento ,1,1,1,0,f,1,18,Los novios pusieron la mesa en su porche.,,,,,,,,,,,,,,,,,,,,,,,,,0,0,0,0,0,44,44,17,,,,,,,,,,,,,,,,,,0.5001789029920474,0.4823628829908557,0.5001789029920474,0.3685243219952099,0.3393969620228745,0.8687032249872573,0.35046462999889627,0.3215050299768336,1.2191678549861535,0.3673006650060415,0.3385189449763857,1.586468519992195,0.5522100480156951,0.5228947220020927,2.13867856800789,0.33370094699785113,0.30199073400581256,2.4723795150057413,0.3507888449821621,0.32172370998887345,2.8231683599879034,0.40148776303976774,0.3720548850251362,3.224656123027671,0.45091152196982875,0.4229515999904834,3.6755676449975,0.9859373150393367,0.9563989859889261,4.661504960036837,0.4180747549980879,0.38931236998178065,5.0795797150349244,0.3999619429814629,0.37071719695813954,5.479541658016387,0.36875675001647323,0.33871912298491225,5.848298408032861,,,,0.4333417550078593,0.40359923301730305,6.28164016304072,,,,,f,1,0.4686742380145006,f,0,3.795799935993273,,,,None,None,0.30112198198912665,0.2539220429607667,6.582762145029847,0.4008297399850562,0.35565207101171836,6.983591885014903,0.43430789600824937,0.37268761300947517,7.417899781023152,0.36784504901152104,0.30144420196302235,7.785744830034673,0.36706338898511603,0.3044410070287995,8.15280821901979,0.4853844160097651,0.439467292977497,8.638192635029554,,,,,,,6,001,1,2,2018_Oct_02_0940,Dissertation,60.3364066091653,
,,0,,,Verdadero,Falso,j,A,incongruent_left,Mi mamá guardó la escultura que hizo en la clase en su mesa de trabajo,1,1,1,0,f,1,14,La escultura está en mi estudio de arte.,,,,,,,,,,,,,,,,,,,,,,,,,0,0,0,0,0,45,45,13,,,,,,,,,,,,,,,,,,0.5169098179903813,0.49910117202671245,0.5169098179903813,0.3678941350081004,0.3382392179919407,0.8848039529984817,0.3343416419811547,0.3012980750063434,1.2191455949796364,0.33375441504176706,0.3011260149651207,1.5529000100214034,0.4179639699868858,0.3847445679712109,1.9708639800082892,0.4836530850152485,0.4509243599604815,2.4545170650235377,0.7185743399895728,0.689313511014916,3.1730914050131105,0.5849616049672477,0.5540599140222184,3.758053009980358,0.4007030180073343,0.36801067198393866,4.1587560279876925,0.36828474199865013,0.3391153599950485,4.527040769986343,0.33523313503246754,0.30705444200430065,4.86227390501881,0.4177427379763685,0.38489215000299737,5.280016642995179,0.3511621350189671,0.32255334802903235,5.631178778014146,,,,0.45078389201080427,0.4231421350268647,6.08196267002495,,,,,f,1,0.740743851987645,j,1,3.348945992998779,,,,None,None,0.3507099379785359,0.3175368919619359,6.432672608003486,,,,,,,,,,,,,,,,,,,,,,6,001,1,2,2018_Oct_02_0940,Dissertation,60.3364066091653,
,,0,,,Verdadero,Falso,j,A,incongruent_right,María acomodó las revistas que Gabriela dejó bajo la cama en el librero cuando las encontró,1,1,1,0,j,1,15,Las revistas de Gabriela están escondidas bajo la cama.,,,,,,,,,,,,,,,,,,,,,,,,,0,0,0,0,0,46,46,14,,,,,,,,,,,,,,,,,,0.5841130000189878,0.5679326590034179,0.5841130000189878,0.3679700120119378,0.3391709770075977,0.9520830120309256,0.4179558649775572,0.3884217150043696,1.3700388770084828,0.4009509879979305,0.3720210519968532,1.7709898650064133,0.7177627580240369,0.6845550780417398,2.48875262303045,0.3667527749785222,0.3345585930510424,2.8555053980089724,0.4018243119935505,0.3564109329599887,3.257329710002523,0.43384341802448034,0.3863817540113814,3.6911731280270033,0.4846949430066161,0.4546326060080901,4.175868071033619,0.4351678940001875,0.40568571200128645,4.611035965033807,0.3183138069580309,0.2717833050410263,4.929349771991838,0.43450154800666496,0.4050844900193624,5.363851319998503,0.3842668870347552,0.35139228199841455,5.748118207033258,,,,0.6017438579583541,0.5562701619928703,6.349862064991612,,,,,j,1,0.5549693860230036,j,1,3.8929952579783276,,,,None,None,0.41674804501235485,0.3877648549969308,6.766610110003967,0.4522031400119886,0.424509517964907,7.218813250015955,,,,,,,,,,,,,,,,,,,6,001,1,2,2018_Oct_02_0940,Dissertation,60.3364066091653,
,,1,,,Verdadero,Falso,j,A,congruent_left,La familia tenía una mesa antigua en el porche de su casa,0,0,0,0,f,0,201,La mesa antigua está en el comedor.,,,,,,,,,,,,,,,,,,,,,,,,,0,0,0,0,0,47,47,30,,,,,,,,,,,,,,,,,,0.5503683729912154,0.5386496619903482,0.5503683729912154,0.4344855200033635,0.40162708197021857,0.9848538929945789,0.7525379319558851,0.7231824169866741,1.737391824950464,0.3677696800441481,0.33902047999436036,2.105161504994612,0.3665836099535227,0.32076574402162805,2.471745114948135,0.4353114600526169,0.405887610046193,2.9070565750007518,1.3202771249925718,1.2917067899834365,4.2273336999933235,0.367483704991173,0.33790868503274396,4.5948174049844965,0.33448748500086367,0.3055256149964407,4.92930488998536,0.38318361301207915,0.35461460502119735,5.312488502997439,0.3851563569623977,0.3553751480067149,5.697644859959837,0.40123137301998213,0.3727022749953903,6.098876232979819,,,,,,,,,,,,,,f,1,0.5352059270371683,j,1,5.53704236302292,,,,None,None,,,,,,,,,,,,,,,,,,,,,,,,,6,001,1,2,2018_Oct_02_0940,Dissertation,60.3364066091653,
,,0,,,Verdadero,Falso,j,A,single_right,El señor gordo tomó un café solo,0,0,0,1,j,0,228,El señor estaba solo cuando bebió el café.,,,,,,,,,,,,,,,,,,,,,,,,,0,0,0,0,0,48,48,57,,,,,,,,,,,,,,,,,,0.6018654570216313,0.5934761899989098,0.6018654570216313,0.38344605697784573,0.35358514299150556,0.985311513999477,0.3856167829944752,0.37267838598927483,1.3709282969939522,0.40133401699131355,0.3720471049891785,1.7722623139852658,0.7193137480062433,0.6900664849672467,2.491576061991509,1.0187459969893098,0.9900789249804802,3.510322058980819,0.4176436500274576,0.38897999800974503,3.9279657090082765,,,,,,,,,,,,,,,,,,,,,,,,,,,,,j,1,0.4384434780222364,f,0,5.118560870003421,,,,None,None,,,,,,,,,,,,,,,,,,,,,,,,,6,001,1,2,2018_Oct_02_0940,Dissertation,60.3364066091653,
,,1,,,Verdadero,Falso,f,A,congruent_right,Siempre que la niña salta la cuerda le da por la cabeza,1,1,0,0,j,0,4,La niña se golpea cuando juega.,,,,,,,,,,,,,,,,,,,,,,,,,0,0,0,0,0,49,49,3,,,,,,,,,,,,,,,,,,0.48424456402426586,0.4710160819813609,0.48424456402426586,0.41784074500901625,0.385011741949711,0.9020853090332821,0.36726280697621405,0.33488964498974383,1.2693481160094962,0.3843306159833446,0.3538423100253567,1.6536787319928408,0.36851228901650757,0.3380021949997172,2.0221910210093483,0.368129679991398,0.3393568639876321,2.3903207010007463,0.38453397300327197,0.3523163300123997,2.7748546740040183,0.36628838803153485,0.33743401302490383,3.141143062035553,0.35224769701017067,0.3055517470347695,3.493390759045724,0.3501100849825889,0.3223331280169077,3.8435008440283127,0.33429744496243075,0.3061971150455065,4.1777982889907435,0.35041431203717366,0.32205665903165936,4.528212601027917,,,,,,,,,,,,,,j,1,0.5903568000067025,f,1,4.26223192299949,,,,None,None,,,,,,,,,,,,,,,,,,,,,,,,,6,001,1,2,2018_Oct_02_0940,Dissertation,60.3364066091653,
,,0,,,Verdadero,Falso,j,A,incongruent_right,Mientras el maestro descansaba el violín resonaba por todo el salón,0,1,1,0,j,0,125,El maestro tocaba el piano.,,,,,,,,,,,,,,,,,,,,,,,,,0,0,0,0,0,50,50,22,,,,,,,,,,,,,,,,,,0.5185431700083427,0.509589908993803,0.5185431700083427,0.36688980500912294,0.336792977002915,0.8854329750174657,0.3856990599888377,0.355785924999509,1.2711320350063033,0.5012034199899063,0.4730011280043982,1.7723354549962096,0.6681670830002986,0.6360384600120597,2.440502537996508,0.36720432504080236,0.33803823502967134,2.8077068630373105,0.4352602549479343,0.4056739269872196,3.242967117985245,0.8675708119990304,0.8374478459591046,4.110537929984275,0.43501813302282244,0.4070607600151561,4.545556063007098,0.4845939250080846,0.4392529659671709,5.030149988015182,0.38355047500226647,0.3368179959943518,5.413700463017449,,,,,,,,,,,,,,,,,j,1,0.5054145369795151,j,1,1.5435497269500047,,,,None,None,,,,,,,,,,,,,,,,,,,,,,,,,6,001,1,2,2018_Oct_02_0940,Dissertation,60.3364066091653,
,,1,,,Verdadero,Falso,f,A,congruent_left,a,0,0,0,0,f,0,311,a,,,,,,,,,,,,,,,,,,,,,,,,,0,0,0,0,0,51,51,70,,,,,,,,,,,,,,,,,,,,,,,,,,,,,,,,,,,,,,,,,,,,,,,,,,,,,,,,,,,,,,,,,,,f,1,0.5894225770025514,None,0,,,,,None,None,,,,,,,,,,,,,,,,,,,,,,,,,6,001,1,2,2018_Oct_02_0940,Dissertation,60.3364066091653,
,,1,,,Verdadero,Falso,f,A,congruent_right,El reloj de mi mamá tiene diamantes pero le queda muy bien,0,0,0,0,j,0,223,Mi madre tiene un reloj bonito.,,,,,,,,,,,,,,,,,,,,,,,,,0,0,0,0,0,52,52,52,,,,,,,,,,,,,,,,,,0.48394045705208555,0.4709299870301038,0.48394045705208555,0.38428010896313936,0.35337198502384126,0.8682205660152249,0.3343828140059486,0.3034506129915826,1.2026033800211735,0.38533104700036347,0.35703518497757614,1.587934427021537,0.3169888330157846,0.28816560795530677,1.9049232600373216,0.2846388469915837,0.2550090349977836,2.1895621070289053,0.3501762240193784,0.3194227259955369,2.5397383310482837,0.2686088939663023,0.23585071397246793,2.808347225014586,0.48395355202956125,0.4550095250015147,3.2923007770441473,0.3347488779691048,0.3083014869480394,3.627049655013252,0.382847186003346,0.35049384203739464,4.009896841016598,0.369261906016618,0.355084711976815,4.379158747033216,,,,,,,,,,,,,,j,1,0.40538741496857256,f,1,2.1575585340033285,,,,None,None,,,,,,,,,,,,,,,,,,,,,,,,,6,001,1,2,2018_Oct_02_0940,Dissertation,60.3364066091653,
,,1,,,Verdadero,Falso,f,A,congruent_left,La computadora de Jessica falla con frecuencia,0,0,0,0,f,0,217,Jessica necesita consultar con un técnico.,,,,,,,,,,,,,,,,,,,,,,,,,0,0,0,0,0,53,53,46,,,,,,,,,,,,,,,,,,0.5835294849821366,0.5747708869748749,0.5835294849821366,0.31827116198837757,0.28874909901060164,0.9018006469705142,0.3829636130249128,0.3515381049946882,1.284764259995427,0.3517421800061129,0.32185841898899525,1.6365064400015399,0.40089304599678144,0.36776192201068625,2.0373994859983213,0.3020582610042766,0.2731580499676056,2.339457747002598,0.31711907498538494,0.2907343219849281,2.656576821987983,,,,,,,,,,,,,,,,,,,,,,,,,,,,,f,1,0.47264645097311586,f,1,1.6259383469587192,,,,None,None,,,,,,,,,,,,,,,,,,,,,,,,,6,001,1,2,2018_Oct_02_0940,Dissertation,60.3364066091653,
,,1,,,Verdadero,Falso,f,A,congruent_right,Mi hija pintó el cuadro que está en la pared de mi oficina,0,0,0,0,j,0,219,Tengo arte colgado en mi oficina.,,,,,,,,,,,,,,,,,,,,,,,,,0,0,0,0,0,54,54,48,,,,,,,,,,,,,,,,,,0.43330650101415813,0.41833370400127023,0.43330650101415813,0.36758269602432847,0.33742881700163707,0.8008891970384866,0.2847549970028922,0.2545739150373265,1.0856441940413788,0.3010006459662691,0.2680843170383014,1.3866448400076479,0.3345629600225948,0.30750172201078385,1.7212078000302427,0.2995653219986707,0.26949536602478474,2.0207731220289133,0.552727298985701,0.5217954820254818,2.5735004210146144,0.41657441499410197,0.38630168203962967,2.9900748360087164,0.41782965004676953,0.38699496001936495,3.407904486055486,0.33434467896586284,0.2856790149817243,3.7422491650213487,0.33428793703205884,0.30483991000801325,4.076537102053408,0.36794534395448864,0.3372257300070487,4.444482446007896,0.3511651000007987,0.32231259997934103,4.795647546008695,,,,,,,,,,,j,1,0.5072392349829897,f,1,4.045967689016834,,,,None,None,,,,,,,,,,,,,,,,,,,,,,,,,6,001,1,2,2018_Oct_02_0940,Dissertation,60.3364066091653,
,,0,,,Verdadero,Falso,f,A,single_left,a,0,0,0,1,f,0,309,a,,,,,,,,,,,,,,,,,,,,,,,,,0,0,0,0,0,55,55,68,,,,,,,,,,,,,,,,,,,,,,,,,,,,,,,,,,,,,,,,,,,,,,,,,,,,,,,,,,,,,,,,,,,f,1,0.4853461249731481,None,0,,,,,None,None,,,,,,,,,,,,,,,,,,,,,,,,,6,001,1,2,2018_Oct_02_0940,Dissertation,60.3364066091653,
,,0,,,Verdadero,Falso,j,A,incongruent_left,El empleado guardó los archivos que recibió en una carpeta después de revisarlos,0,1,1,0,f,0,132,El empleado tiró los documentos.,,,,,,,,,,,,,,,,,,,,,,,,,0,0,0,0,0,56,56,25,,,,,,,,,,,,,,,,,,0.48394038499100134,0.471350395004265,0.48394038499100134,0.3521867520175874,0.32262844999786466,0.8361271370085888,0.8352894969866611,0.7911337420227937,1.6714166339952499,1.2523937050136738,1.2242774350452237,2.9238103390089236,0.4512810239684768,0.4199325990048237,3.3750913629774004,0.5021645739907399,0.47303270001430064,3.8772559369681403,0.30042707204120234,0.268369788012933,4.177683009009343,0.3341259100125171,0.3061463600024581,4.51180891902186,0.3345222649513744,0.3060919949784875,4.846331183973234,0.3176352080190554,0.27272991300560534,5.16396639199229,0.33413674001349136,0.3014418469974771,5.498103132005781,0.3171435460099019,0.2879742990480736,5.815246678015683,0.43464489199686795,0.4013861229759641,6.249891570012551,,,,,,,,,,,f,1,0.5188157099764794,j,1,1.7438883220311254,,,,None,None,,,,,,,,,,,,,,,,,,,,,,,,,6,001,1,2,2018_Oct_02_0940,Dissertation,60.3364066091653,
,,0,,,Verdadero,Falso,j,A,incongruent_right,Siempre que mi hermana maneja el carro suena raro ,1,1,1,0,j,1,3,El carro está en una condición perfecta.,,,,,,,,,,,,,,,,,,,,,,,,,0,0,0,0,0,57,57,2,,,,,,,,,,,,,,,,,,0.584595522028394,0.577273360977415,0.584595522028394,0.38408966502174735,0.3537235910189338,0.9686851870501414,0.3674842669861391,0.337207158037927,1.3361694540362805,0.36835196998436004,0.33505302300909534,1.7045214240206406,0.3671817660215311,0.33763013302814215,2.0717031900421716,0.33425597700988874,0.3008515380206518,2.4059591670520604,0.41802936495514587,0.38927567802602425,2.8239885320072062,0.4174867380061187,0.3860652699950151,3.241475270013325,0.6525109020294622,0.6228265049867332,3.893986172042787,,,,,,,,,,,,,,,,,,,,,,,j,1,0.7529096420039423,j,1,3.914422514033504,,,,None,None,,,,,,,,,,,,,,,,,,,,,,,,,6,001,1,2,2018_Oct_02_0940,Dissertation,60.3364066091653,
,,0,,,Verdadero,Falso,f,A,incongruent_left,a,0,0,1,0,f,0,313,a,,,,,,,,,,,,,,,,,,,,,,,,,0,0,0,0,0,58,58,72,,,,,,,,,,,,,,,,,,,,,,,,,,,,,,,,,,,,,,,,,,,,,,,,,,,,,,,,,,,,,,,,,,,f,1,0.8222727049724199,None,0,,,,,None,None,,,,,,,,,,,,,,,,,,,,,,,,,6,001,1,2,2018_Oct_02_0940,Dissertation,60.3364066091653,
,,1,,,Verdadero,Falso,f,A,congruent_right,Cuando mi madre lavaba la ropa quedaba muy limpia,1,1,0,0,j,0,8,Mi madre me ayuda con el lavado de ropa.,,,,,,,,,,,,,,,,,,,,,,,,,0,0,0,0,0,59,59,7,,,,,,,,,,,,,,,,,,0.6679541780031286,0.6556612169952132,0.6679541780031286,0.36755319498479366,0.3370222899829969,1.0355073729879223,0.3841518620029092,0.3543718750006519,1.4196592349908315,0.4352304969797842,0.40555567195406184,1.8548897319706157,0.36688922601751983,0.337024679989554,2.2217789579881355,0.3340271519846283,0.3014834360219538,2.555806109972764,0.41798905801260844,0.40377050603274256,2.9737951679853722,0.38494917697971687,0.3546121860272251,3.358744344965089,0.5517424319987185,0.523729867010843,3.9104867769638076,,,,,,,,,,,,,,,,,,,,,,,j,1,0.40633821301162243,j,0,5.0669366550282575,,,,None,None,,,,,,,,,,,,,,,,,,,,,,,,,6,001,1,2,2018_Oct_02_0940,Dissertation,60.3364066091653,
,,1,,,Verdadero,Falso,f,A,congruent_left,Después de que comieron el pollo se enfrió inmediatamente ,1,1,0,0,f,0,1,Comieron el pollo caliente.,,,,,,,,,,,,,,,,,,,,,,,,,0,0,0,0,0,60,60,0,,,,,,,,,,,,,,,,,,0.449631605995819,0.4356530759832822,0.449631605995819,0.3509167919983156,0.3356905819964595,0.8005483979941346,0.3014721419895068,0.2708937879651785,1.1020205399836414,0.31692773604299873,0.2872297359863296,1.41894827602664,0.30175684398273006,0.27366064401576295,1.7207051200093701,0.7362404500017874,0.6903907880187035,2.4569455700111575,0.3498256219900213,0.3199198149959557,2.806771192001179,0.350563769985456,0.3211895279819146,3.157334961986635,0.35171642299974337,0.3222414629999548,3.5090513849863783,,,,,,,,,,,,,,,,,,,,,,,f,1,0.49018124700523913,f,1,7.592830548004713,,,,None,None,,,,,,,,,,,,,,,,,,,,,,,,,6,001,1,2,2018_Oct_02_0940,Dissertation,60.3364066091653,
,,0,,,Verdadero,Falso,j,A,single_right,Cuando usó mi carro Jorge lo aparcó muy mal,0,0,0,1,j,0,212,No le presto mi carro a nadie.,,,,,,,,,,,,,,,,,,,,,,,,,0,0,0,0,0,61,61,41,,,,,,,,,,,,,,,,,,0.43345269199926406,0.42291343200486153,0.43345269199926406,0.352709672995843,0.3228729700203985,0.786162364995107,0.317520466982387,0.2845542549621314,1.103682831977494,0.38374913804000244,0.35518493701238185,1.4874319700174965,0.35131479997653514,0.32169251498999074,1.8387467699940316,0.7340944450115785,0.7052543699974194,2.57284121500561,0.3684902469976805,0.33851945004425943,2.9413314620032907,0.3676383880083449,0.3350410850252956,3.3089698500116356,0.4011803269968368,0.3713049049838446,3.7101501770084724,,,,,,,,,,,,,,,,,,,,,,,j,1,0.55266018002294,j,1,2.9454537379788235,,,,None,None,,,,,,,,,,,,,,,,,,,,,,,,,6,001,1,2,2018_Oct_02_0940,Dissertation,60.3364066091653,
,,0,,,Verdadero,Falso,f,A,single_left,Antes de correr su primer maratón María tuvo que correr mucho para practicar,0,0,0,1,f,0,210,María corrió el maratón sin entrenarse.,,,,,,,,,,,,,,,,,,,,,,,,,0,0,0,0,0,62,62,39,,,,,,,,,,,,,,,,,,0.4844319300027564,0.4700806349865161,0.4844319300027564,0.38417185499565676,0.35569743800442666,0.8686037849984132,0.33451736700953916,0.30566420004470274,1.2031211520079523,0.3508665229892358,0.30580954800825566,1.5539876749971882,0.33428042504237965,0.3054656750173308,1.8882681000395678,0.31717665697215125,0.2881526169949211,2.205444757011719,0.3343833750113845,0.301851074967999,2.5398281320231035,0.35088227497180924,0.32198958203662187,2.8907104069949128,0.3337652800255455,0.30466681299731135,3.2244756870204583,0.36869440297596157,0.3391479030251503,3.59317008999642,0.38316878501791507,0.35446845000842586,3.976338875014335,0.5176606519962661,0.48822080000536516,4.493999527010601,0.30193445802433416,0.2718323749722913,4.795933985034935,,,,,,,,,,,f,1,0.5517294320161454,j,0,1.7421607150463387,,,,None,None,,,,,,,,,,,,,,,,,,,,,,,,,6,001,1,2,2018_Oct_02_0940,Dissertation,60.3364066091653,
,,0,,,Verdadero,Falso,f,A,incongruent_right,Cuando el escultor volvió la obra estaba instalada en el parque,0,1,1,0,j,0,129,La obra era para el público.,,,,,,,,,,,,,,,,,,,,,,,,,0,0,0,0,0,63,63,24,,,,,,,,,,,,,,,,,,0.4676028380054049,0.4548456629854627,0.4676028380054049,0.367477539984975,0.3352958169998601,0.8350803779903799,0.35063922201516107,0.32168337801704183,1.185719600005541,0.45195670996326953,0.4231719980016351,1.6376763099688105,0.666739315027371,0.6375861089909449,2.3044156249961816,0.3509950480074622,0.32176532899029553,2.6554106730036438,0.3509461450157687,0.3212132750195451,3.0063568180194125,0.31834941694978625,0.2874657929642126,3.3247062349691987,0.3675837250193581,0.33847339201020077,3.692289959988557,0.3848576429882087,0.3553974269889295,4.0771476029767655,0.33415315503953025,0.3047653820249252,4.411300758016296,,,,,,,,,,,,,,,,,j,1,0.4563151419861242,f,1,2.2953427949687466,,,,None,None,,,,,,,,,,,,,,,,,,,,,,,,,6,001,1,2,2018_Oct_02_0940,Dissertation,60.3364066091653,
,,0,,,Verdadero,Falso,f,A,single_right,El cocinero lava las verduras en el fregadero,0,0,0,1,j,0,204,El cocinero prepara las verduras él mismo.,,,,,,,,,,,,,,,,,,,,,,,,,0,0,0,0,0,64,64,33,,,,,,,,,,,,,,,,,,0.418133761966601,0.40827628900296986,0.418133761966601,0.4174105279962532,0.3888117470196448,0.8355442899628542,0.45141940499888733,0.4223094609915279,1.2869636949617416,0.5342615169938654,0.5056698970147409,1.821225211955607,0.4349487880244851,0.405445097014308,2.256173999980092,0.46771391696529463,0.4385189519962296,2.7238879169453867,0.36809415300376713,0.3390163169824518,3.091982069949154,0.36754148500040174,0.33504755998728797,3.4595235549495555,,,,,,,,,,,,,,,,,,,,,,,,,,j,1,0.556213257019408,f,1,8.42800245800754,,,,None,None,,,,,,,,,,,,,,,,,,,,,,,,,6,001,1,2,2018_Oct_02_0940,Dissertation,60.3364066091653,
,,0,,,Verdadero,Falso,j,A,incongruent_left,Después de que limpiaron la casa brillaba por todas partes,1,1,1,0,f,1,2,Todavía tienen que limpiar la sala.,,,,,,,,,,,,,,,,,,,,,,,,,0,0,0,0,0,65,65,1,,,,,,,,,,,,,,,,,,0.5339860030217096,0.5221517290337943,0.5339860030217096,0.38373172195861116,0.3546785819926299,0.9177177249803208,0.40160387504147366,0.36841295997146517,1.3193216000217944,0.35089518496533856,0.32241638202685863,1.670216784987133,0.6684180379961617,0.6391040330054238,2.3386348229832947,0.36691845703171566,0.3375538000254892,2.7055532800150104,0.3500846579554491,0.3185200010193512,3.0556379379704595,0.30211506702471524,0.2732588390354067,3.3577530049951747,0.36680643301224336,0.3375625520129688,3.724559438007418,0.2845363669912331,0.2539684080402367,4.009095804998651,,,,,,,,,,,,,,,,,,,,f,1,0.572640210040845,j,1,2.394189738028217,,,,None,None,,,,,,,,,,,,,,,,,,,,,,,,,6,001,1,2,2018_Oct_02_0940,Dissertation,60.3364066091653,
,,0,,,Verdadero,Falso,f,A,incongruent_right,La madre metió los vasos sucios que su hija dejó en el lavaplatos cuando acabó de comer,0,1,1,0,j,0,137,La madre limpió después de la comida.,,,,,,,,,,,,,,,,,,,,,,,,,0,0,0,0,0,66,66,28,,,,,,,,,,,,,,,,,,0.5512280780239962,0.5383474639966153,0.5512280780239962,0.35131160798482597,0.31860270199831575,0.9025396860088222,0.33424202003516257,0.304854447953403,1.2367817060439847,0.4336018369649537,0.40494481299538165,1.6703835430089384,0.4173984350054525,0.3706630779779516,2.087781978014391,0.4019814530038275,0.3723121929797344,2.4897634310182184,0.5015485599869862,0.4686423920211382,2.9913119910052046,0.4173385900212452,0.3886268649948761,3.40865058102645,0.30089220200898126,0.2712592579773627,3.709542783035431,0.25082345301052555,0.22112870501587167,3.9603662360459566,0.3847988249617629,0.33851286000572145,4.3451650610077195,0.26682075700955465,0.23720457503804937,4.611985818017274,0.25062437501037493,0.22091982001438737,4.862610193027649,,,,0.48454689496429637,0.4556774420198053,5.3471570879919454,,,,,j,1,0.5039325190009549,j,0,5.8535432100179605,,,,None,None,0.2843730580061674,0.2551558379782364,5.631530145998113,0.3681432000012137,0.3399833400035277,5.999673345999327,0.5009398020338267,0.471834130003117,6.500613148033153,,,,,,,,,,,,,,,,6,001,1,2,2018_Oct_02_0940,Dissertation,60.3364066091653,
,,0,,,Verdadero,Falso,j,A,single_right,Las flores en mi apartamento hacen que la sala brille,0,0,0,1,j,0,224,No tengo plantas en mi apartamento por mis alergias.,,,,,,,,,,,,,,,,,,,,,,,,,0,0,0,0,0,67,67,53,,,,,,,,,,,,,,,,,,0.45128422998823225,0.4416012110305019,0.45128422998823225,0.33286132698412985,0.3036291520111263,0.7841455569723621,0.418566593027208,0.38790004496695474,1.20271214999957,0.38369810697622597,0.35399127297569066,1.586410256975796,0.318109554995317,0.2878748900257051,1.904519811971113,0.5340370089979842,0.5047220240230672,2.4385568209690973,0.26668649999191985,0.2362063120235689,2.705243320961017,0.35119289602153003,0.3216177339782007,3.056436216982547,0.3188468529842794,0.2887711059884168,3.3752830699668266,0.3505095349973999,0.3215489650028758,3.7257926049642265,,,,,,,,,,,,,,,,,,,,j,1,0.4231526150251739,j,1,2.1272454599966295,,,,None,None,,,,,,,,,,,,,,,,,,,,,,,,,6,001,1,2,2018_Oct_02_0940,Dissertation,60.3364066091653,
,,1,,,Verdadero,Falso,j,A,congruent_right,Jorge puso las monedas que traía en su abrigo en la mesa cuando regresó a su casa,1,1,0,0,j,0,12,Las monedas de Jorge están en su abrigo.,,,,,,,,,,,,,,,,,,,,,,,,,0,0,0,0,0,68,68,11,,,,,,,,,,,,,,,,,,1.386568586982321,1.3670932649984024,1.386568586982321,0.46740983304334804,0.4390496800187975,1.853978420025669,0.5344774469849654,0.5072700850432739,2.3884558670106344,0.36813024297589436,0.3387232620152645,2.7565861099865288,0.6517951450077817,0.6235247880103998,3.4083812549943104,0.30087496200576425,0.2713575719972141,3.7092562170000747,0.35009089298546314,0.3219885820290074,4.059347109985538,0.31803350703557953,0.28812908497639,4.377380617021117,0.2505072329659015,0.21884162299102172,4.627887849987019,0.36796826700447127,0.33906289999140427,4.99585611699149,0.30089297000085935,0.272141975001432,5.2967490869923495,0.33430412801681086,0.3051356400246732,5.63105321500916,0.41754819196648896,0.3897246429696679,6.048601406975649,,,,0.2671470900531858,0.23809622798580676,6.315748497028835,,,,,j,1,0.43840364704374224,j,1,3.6624074829742312,,,,None,None,0.46825709799304605,0.4391953499871306,6.784005595021881,0.2832670749630779,0.2545976199908182,7.067272669984959,0.318122040014714,0.2732446520240046,7.385394709999673,,,,,,,,,,,,,,,,6,001,1,2,2018_Oct_02_0940,Dissertation,60.3364066091653,
,,0,,,Verdadero,Falso,f,A,single_right,Me reí cuando mi amiga me contó la historia de su encuentro con su ex.,0,0,0,1,j,0,220,La historia de mi amiga me dio gracia.,,,,,,,,,,,,,,,,,,,,,,,,,0,0,0,0,0,69,69,49,,,,,,,,,,,,,,,,,,0.6172061550314538,0.6043374729924835,0.6172061550314538,0.2837729449965991,0.25493795302463695,0.9009791000280529,0.28413929999805987,0.2551460029790178,1.1851184000261128,0.5178199600195512,0.48773325997171924,1.702938360045664,0.3341610229690559,0.30513142002746463,2.03709938301472,0.3012616070336662,0.27224264800315723,2.338360990048386,0.5346590299741365,0.5058397729881108,2.8730200200225227,0.5017992680077441,0.4727705550030805,3.3748192880302668,0.4850207249983214,0.45422497001709417,3.859840013028588,0.4336600070237182,0.4055370530113578,4.293500020052306,0.35109905299032107,0.32166787498863414,4.644599073042627,0.28369149699574336,0.25387041800422594,4.928290570038371,0.43503615498775616,0.40200712997466326,5.363326725026127,,,,0.2842684229835868,0.25549479998881,5.647595148009714,,,,,j,1,0.5210827399860136,f,1,6.305061969964299,,,,None,None,0.3337511770077981,0.30513895000331104,5.981346325017512,,,,,,,,,,,,,,,,,,,,,,6,001,1,2,2018_Oct_02_0940,Dissertation,60.3364066091653,
,,0,,,Verdadero,Falso,j,A,single_right,Cuando Dora ganó la lotería se compró un reloj de diamantes,0,0,0,1,j,0,216,Dora ahorró todo el dinero que ganó. ,,,,,,,,,,,,,,,,,,,,,,,,,0,0,0,0,0,70,70,45,,,,,,,,,,,,,,,,,,0.43396178499097005,0.42215486895293,0.43396178499097005,0.36658650799654424,0.3376984350034036,0.8005482929875143,0.35108929697889835,0.3212497879867442,1.1516375899664126,0.3182036399957724,0.28844558499986306,1.469841229962185,0.4009864430408925,0.3724411049624905,1.8708276730030775,0.43443757196655497,0.405549599963706,2.3052652449696325,0.28391386999282986,0.2557284269714728,2.5891791149624623,0.3173768350388855,0.2895386349991895,2.906555950001348,0.3012977580074221,0.27188238000962883,3.20785370800877,0.31664461200125515,0.28792014700593427,3.524498320010025,0.3181099549983628,0.28805588703835383,3.842608275008388,,,,,,,,,,,,,,,,,j,1,0.5848051720531657,j,1,2.1728297119843774,,,,None,None,,,,,,,,,,,,,,,,,,,,,,,,,6,001,1,2,2018_Oct_02_0940,Dissertation,60.3364066091653,
,,0,,,Verdadero,Falso,j,A,incongruent_right,Paco dejó los pantalones que compró en la tienda en su cuarto cuando volvió,1,1,1,0,j,1,11,A Paco los pantalones se le quedaron en la tienda.,,,,,,,,,,,,,,,,,,,,,,,,,0,0,0,0,0,71,71,10,,,,,,,,,,,,,,,,,,0.4169365619891323,0.4029533249558881,0.4169365619891323,0.3332135980017483,0.3036636600154452,0.7501501599908806,0.4025740370270796,0.3725265050306916,1.1527241970179603,0.4497518799616955,0.42185535200405866,1.6024760769796558,0.4840612360276282,0.4512668380048126,2.086537313007284,0.2840154980076477,0.2376755650038831,2.3705528110149316,0.2842017209623009,0.25455459801014513,2.6547545319772325,0.30150348803726956,0.2732852000044659,2.956258020014502,0.28447019698796794,0.2557236730353907,3.24072821700247,0.31742670497624204,0.2885725219966844,3.558154921978712,0.284366118023172,0.2523107049637474,3.842521040001884,0.2675468070083298,0.23438926500966772,4.110067847010214,0.38437434000661597,0.3557214270113036,4.49444218701683,,,,0.350534732977394,0.32189386297250167,4.844976919994224,,,,,j,1,0.5730038600158878,j,1,2.4618315580300987,,,,None,None,,,,,,,,,,,,,,,,,,,,,,,,,6,001,1,2,2018_Oct_02_0940,Dissertation,60.3364066091653,
,,1,,,Verdadero,Falso,f,A,congruent_right,a,0,0,0,0,j,0,304,a,,,,,,,,,,,,,,,,,,,,,,,,,0,0,0,0,0,72,72,63,,,,,,,,,,,,,,,,,,,,,,,,,,,,,,,,,,,,,,,,,,,,,,,,,,,,,,,,,,,,,,,,,,,j,1,0.4567218730226159,None,0,,,,,None,None,,,,,,,,,,,,,,,,,,,,,,,,,6,001,1,2,2018_Oct_02_0940,Dissertation,60.3364066091653,
,,0,,,Verdadero,Falso,j,A,single_left,Ana vació el lavaplatos en la cocina,0,0,0,1,f,0,206,Ana no ayudó con los quehaceres.,,,,,,,,,,,,,,,,,,,,,,,,,0,0,0,0,0,73,73,35,,,,,,,,,,,,,,,,,,0.5163602770189755,0.5079599050222896,0.5163602770189755,0.41779073496581987,0.3882366000325419,0.9341510119847953,0.3678864950197749,0.3349332949728705,1.3020375070045702,0.3679683030350134,0.35513150901533663,1.6700058100395836,1.5536761719849892,1.525250850012526,3.223681982024573,0.28321193996816874,0.25203045801026747,3.5068939219927415,0.3341693209949881,0.31901730998652056,3.8410632429877296,,,,,,,,,,,,,,,,,,,,,,,,,,,,,f,1,0.43993108498398215,j,1,5.532386529957876,,,,None,None,,,,,,,,,,,,,,,,,,,,,,,,,6,001,1,2,2018_Oct_02_0940,Dissertation,60.3364066091653,
,,0,,,Verdadero,Falso,f,A,single_right,a,0,0,0,1,j,0,302,a,,,,,,,,,,,,,,,,,,,,,,,,,0,0,0,0,0,74,74,61,,,,,,,,,,,,,,,,,,,,,,,,,,,,,,,,,,,,,,,,,,,,,,,,,,,,,,,,,,,,,,,,,,,j,1,0.4019561469904147,None,0,,,,,None,None,,,,,,,,,,,,,,,,,,,,,,,,,6,001,1,2,2018_Oct_02_0940,Dissertation,60.3364066091653,
,,0,,,Verdadero,Falso,f,B,incongruent_right,Siempre que mi hermana sale el carro se queda sin gasolina,0,1,1,0,j,0,103,Mi hermana no rellena el tanque.,,,,,,,,,,,,,,,,,,,,,,,,,1,0,1,0,0,0,0,21,,,,,,,,,,,,,,,,,,0.6007607899955474,0.5863476099912077,0.6007607899955474,0.3338721700129099,0.3046542949741706,0.9346329600084573,0.33381173794623464,0.30405063001671806,1.268444697954692,0.30162927199853584,0.27158470498397946,1.5700739699532278,0.3173506130115129,0.288608146016486,1.8874245829647407,0.3325029000407085,0.3043702869908884,2.219927483005449,0.43513625796185806,0.40155978297116235,2.6550637409673072,0.3851207839907147,0.3567844560020603,3.040184524958022,0.4512164080515504,0.4048984380206093,3.4914009330095723,0.40052922698669136,0.3709010099992156,3.8919301599962637,0.36781069298740476,0.33782387198880315,4.2597408529836684,,,,,,,,,,,,,,,,,j,1,0.4899099019821733,f,1,2.557479634997435,,,,None,None,,,,,,,,,,,,,,,,,,,,,,,space,10.1945202780189,6,001,1,2,2018_Oct_02_0940,Dissertation,60.3364066091653,
,,0,,,Verdadero,Falso,f,B,single_right,Cuando los amigos tienen una fiesta todos toman vino o cerveza,0,0,0,1,j,0,242,Mis amigos no toman whisky en las fiestas.,,,,,,,,,,,,,,,,,,,,,,,,,1,0,1,0,0,1,1,41,,,,,,,,,,,,,,,,,,0.6841669779969379,0.6716058349702507,0.6841669779969379,0.3677049500402063,0.3385872299550101,1.0518719280371442,0.31768972700228915,0.2889259780058637,1.3695616550394334,0.31728565297089517,0.2886090900283307,1.6868473080103286,0.3004682720056735,0.2713153049699031,1.987315580016002,0.3010139879770577,0.27112195000518113,2.2883295679930598,0.2839932719944045,0.25428113795351237,2.5723228399874642,0.5181380180292763,0.48931852501118556,3.0904608580167405,0.38455154502298683,0.35478882800089195,3.4750124030397274,0.40015583799686283,0.3692949669784866,3.87516824103659,0.4688775739632547,0.44096589501714334,4.344045814999845,,,,,,,,,,,,,,,,,j,1,0.5049537179875188,f,1,5.83290915802354,,,,None,None,,,,,,,,,,,,,,,,,,,,,,,,,6,001,1,2,2018_Oct_02_0940,Dissertation,60.3364066091653,
,,0,,,Verdadero,Falso,f,A,single_right,a,0,0,0,1,j,0,306,a,,,,,,,,,,,,,,,,,,,,,,,,,1,0,1,0,0,2,2,65,,,,,,,,,,,,,,,,,,,,,,,,,,,,,,,,,,,,,,,,,,,,,,,,,,,,,,,,,,,,,,,,,,,j,1,0.5494306649779901,None,0,,,,,None,None,,,,,,,,,,,,,,,,,,,,,,,,,6,001,1,2,2018_Oct_02_0940,Dissertation,60.3364066091653,
,,0,,,Verdadero,Falso,j,B,single_left,Cuando era niño mi papá quería ser arquitecto,0,0,0,1,f,0,244,Mi papá quería ser mecánico cuando era menor.,,,,,,,,,,,,,,,,,,,,,,,,,1,0,1,0,0,3,3,43,,,,,,,,,,,,,,,,,,0.5517538309795782,0.5476714450051077,0.5517538309795782,0.38359295000554994,0.3546692869858816,0.9353467809851281,0.38506918802158907,0.35561834200052544,1.3204159690067172,0.5353286169702187,0.5059635570505634,1.855744585976936,0.3509073930326849,0.3214533769642003,2.206651979009621,0.3674987099948339,0.3350124299759045,2.5741506890044548,0.3175446149543859,0.2885032120393589,2.8916953039588407,0.36782868701266125,0.33930805802810937,3.259523990971502,,,,,,,,,,,,,,,,,,,,,,,,,,f,1,0.5890349629917182,j,1,2.3944759300211444,,,,None,None,,,,,,,,,,,,,,,,,,,,,,,,,6,001,1,2,2018_Oct_02_0940,Dissertation,60.3364066091653,
,,1,,,Verdadero,Falso,f,A,congruent_right,a,0,0,0,0,j,0,312,a,,,,,,,,,,,,,,,,,,,,,,,,,1,0,1,0,0,4,4,71,,,,,,,,,,,,,,,,,,,,,,,,,,,,,,,,,,,,,,,,,,,,,,,,,,,,,,,,,,,,,,,,,,,j,1,0.5073202179628424,None,0,,,,,None,None,,,,,,,,,,,,,,,,,,,,,,,,,6,001,1,2,2018_Oct_02_0940,Dissertation,60.3364066091653,
,,0,,,Verdadero,Falso,f,B,incongruent_left,Este año cuando gritaron el grito sonó hasta por las montañas,1,1,1,0,f,1,24,Se escuchó el grito desde lejos.,,,,,,,,,,,,,,,,,,,,,,,,,1,0,1,0,0,5,5,3,,,,,,,,,,,,,,,,,,0.5833945350022987,0.5712998210219666,0.5833945350022987,0.36829519702587277,0.33864066196838394,0.9516897320281714,0.41800765495281667,0.3888495270512067,1.369697386980988,0.4342342150048353,0.4050260719959624,1.8039316019858234,0.43449632002739236,0.40152390499133617,2.2384279220132157,0.30097330000717193,0.27205826697172597,2.5394012220203876,0.4679431599797681,0.43536251498153433,3.0073443820001557,0.40114149497821927,0.36827124701812863,3.408485876978375,0.38411661802092567,0.35501059202942997,3.7926024949993007,0.3676631370326504,0.33824653999181464,4.160265632031951,0.41797978297108784,0.3897040250012651,4.578245415003039,,,,,,,,,,,,,,,,,f,1,0.4552585550118238,f,1,3.6298607420176268,,,,None,None,,,,,,,,,,,,,,,,,,,,,,,,,6,001,1,2,2018_Oct_02_0940,Dissertation,60.3364066091653,
,,0,,,Verdadero,Falso,f,A,single_left,a,0,0,0,1,f,0,309,a,,,,,,,,,,,,,,,,,,,,,,,,,1,0,1,0,0,6,6,68,,,,,,,,,,,,,,,,,,,,,,,,,,,,,,,,,,,,,,,,,,,,,,,,,,,,,,,,,,,,,,,,,,,f,1,0.5185271999798715,None,0,,,,,None,None,,,,,,,,,,,,,,,,,,,,,,,,,6,001,1,2,2018_Oct_02_0940,Dissertation,60.3364066091653,
,,1,,,Verdadero,Falso,f,A,congruent_left,a,0,0,0,0,f,0,311,a,,,,,,,,,,,,,,,,,,,,,,,,,1,0,1,0,0,7,7,70,,,,,,,,,,,,,,,,,,,,,,,,,,,,,,,,,,,,,,,,,,,,,,,,,,,,,,,,,,,,,,,,,,,f,1,0.4358797600143589,None,0,,,,,None,None,,,,,,,,,,,,,,,,,,,,,,,,,6,001,1,2,2018_Oct_02_0940,Dissertation,60.3364066091653,
,,1,,,Verdadero,Falso,j,B,congruent_right,Mientras el novio pagaba el diamante se le cayó al piso,1,1,0,0,j,0,26,La esposa dejó caer el diamante al piso.,,,,,,,,,,,,,,,,,,,,,,,,,1,0,1,0,0,8,8,5,,,,,,,,,,,,,,,,,,0.5165886000031605,0.505733554949984,0.5165886000031605,0.6029690279974602,0.5730293039814569,1.1195576280006208,0.4330961229861714,0.404550137987826,1.5526537509867921,0.5689471940277144,0.5402844650088809,2.1216009450145066,0.4346326779923402,0.40548405499430373,2.5562336230068468,0.28399648697813973,0.255690986989066,2.8402301099849865,0.6015201630070806,0.5691787549876608,3.441750272992067,0.30105555203044787,0.2715952700236812,3.742805825022515,0.3838850379688665,0.3503421429777518,4.126690862991381,0.4171001869835891,0.38748978002695367,4.5437910499749705,0.3858929730486125,0.35209766001207754,4.929684023023583,,,,,,,,,,,,,,,,,j,1,0.40394614898832515,j,1,3.9150442049722187,,,,None,None,,,,,,,,,,,,,,,,,,,,,,,,,6,001,1,2,2018_Oct_02_0940,Dissertation,60.3364066091653,
,,1,,,Verdadero,Falso,j,B,congruent_right,Amalia puso el jamón que sus hermanos dejaron en los platos en el refrigerador después de que comieron,1,1,0,0,j,0,34,Los hermanos ordenaron la mesa después de comer. ,,,,,,,,,,,,,,,,,,,,,,,,,1,0,1,0,0,9,9,13,,,,,,,,,,,,,,,,,,0.48431372799677774,0.46860585297690704,0.48431372799677774,0.41765407199272886,0.38911285798531026,0.9019677999895066,0.5344787130015902,0.4888659869902767,1.4364465129910968,0.43463442503707483,0.4052255799761042,1.8710809380281717,0.45117072196444497,0.4186799449962564,2.3222516599926166,0.5350858180318028,0.5026502619730309,2.8573374780244194,0.3671024569775909,0.33875213999999687,3.2244399350020103,0.31800042500253767,0.29220028303097934,3.542440360004548,0.41761798498919234,0.37201596499653533,3.9600583449937403,0.3344812130089849,0.3054654230363667,4.294539558002725,0.3675297599984333,0.33912754303310066,4.6620693180011585,0.7353010469814762,0.689120169961825,5.397370364982635,0.33420900005148724,0.30215739499544725,5.731579365034122,,,,0.3839550479897298,0.33927665499504656,6.115534413023852,,,,,j,1,0.43956327001797035,j,1,5.637700668012258,,,,None,None,0.4338225919636898,0.40433487499831244,6.549357004987542,0.4522147829993628,0.42203979997429997,7.001571787986904,0.3171957600279711,0.2887751520029269,7.3187675480148755,0.30003506800858304,0.270237824996002,7.6188026160234585,,,,,,,,,,,,,6,001,1,2,2018_Oct_02_0940,Dissertation,60.3364066091653,
