practiceimage,PracticeimageCorrAns,congruent,practiceSentence,practiceSentenceCompQ,compRespL,compRespR,compRespCorr,block,image,sentence,ambiguous,critical,Incongruent,Single,imageCorrAns,incongruentambiguous,criticalSentenceCode,compQ,RepeatFlankerIfNeeded.thisRepN,RepeatFlankerIfNeeded.thisTrialN,RepeatFlankerIfNeeded.thisN,RepeatFlankerIfNeeded.thisIndex,practiceFlankerLoop.thisRepN,practiceFlankerLoop.thisTrialN,practiceFlankerLoop.thisN,practiceFlankerLoop.thisIndex,RepeatPracticeSentencesIfNeeded.thisRepN,RepeatPracticeSentencesIfNeeded.thisTrialN,RepeatPracticeSentencesIfNeeded.thisN,RepeatPracticeSentencesIfNeeded.thisIndex,practiceSentenceLoop.thisRepN,practiceSentenceLoop.thisTrialN,practiceSentenceLoop.thisN,practiceSentenceLoop.thisIndex,MixedPractice.thisRepN,MixedPractice.thisTrialN,MixedPractice.thisN,MixedPractice.thisIndex,MixedPracticeTrial.thisRepN,MixedPracticeTrial.thisTrialN,MixedPracticeTrial.thisN,MixedPracticeTrial.thisIndex,blocks.thisRepN,blocks.thisTrialN,blocks.thisN,blocks.thisIndex,trials.thisRepN,trials.thisTrialN,trials.thisN,trials.thisIndex,keyResponseIntroText.keys,keyResponseIntroText.rt,keyResponseIntro2Text.keys,keyResponseIntro2Text.rt,FlankerInstructions_keyresponse.keys,FlankerInstructions_keyresponse.rt,FlankerInstructions2_keyresponse.keys,FlankerInstructions2_keyresponse.rt,PracticeFlankerResponse.keys,PracticeFlankerResponse.corr,PracticeFlankerResponse.rt,SPRInstructions_keyresponse.keys,SPRInstructions_keyresponse.rt,key_resp_5.keys,key_resp_5.rt,SPRinstructions2_keyresponse.keys,SPRinstructions2_keyresponse.rt,IRI_0,IRI_FL_0,space_0,IRI_1,IRI_FL_1,space_1,IRI_2,IRI_FL_2,space_2,IRI_3,IRI_FL_3,space_3,IRI_4,IRI_FL_4,space_4,IRI_5,IRI_FL_5,space_5,IRI_6,IRI_FL_6,space_6,IRI_7,IRI_FL_7,space_7,IRI_8,IRI_FL_8,space_8,IRI_9,IRI_FL_9,space_9,IRI_10,IRI_FL_10,space_10,IRI_11,IRI_FL_11,space_11,IRI_12,IRI_FL_12,space_12,key_resp_practiceCompQ.keys,key_resp_practiceCompQ.corr,key_resp_practiceCompQ.rt,IRI_13,IRI_FL_13,space_13,combinedInstructions_keyresponse.keys,combinedInstructions_keyresponse.rt,keyResponseInstructionsMixed.keys,keyResponseInstructionsMixed.rt,flankerkeyresponse.keys,flankerkeyresponse.corr,flankerkeyresponse.rt,CompQkeyresponse.keys,CompQkeyresponse.corr,CompQkeyresponse.rt,key_resp_3.keys,keyResponsePreStart.keys,keyResponsePreStart.rt,key_resp_2.keys,key_resp_4.keys,IRI_14,IRI_FL_14,space_14,IRI_15,IRI_FL_15,space_15,IRI_16,IRI_FL_16,space_16,IRI_17,IRI_FL_17,space_17,IRI_18,IRI_FL_18,space_18,IRI_19,IRI_FL_19,space_19,key_resp_4.rt,rest_keyresponse.keys,rest_keyresponse.rt,IRI_20,IRI_FL_20,space_20,participant,session,group,level,date,expName,frameRate,
,,,,,,,,,,,,,,,,,,,,,,,,,,,,,,,,,,,,,,,,,,,,,,,,,,,space,29.29301838000538,,,,,,,,,,,,,,,,,,,,,,,,,,,,,,,,,,,,,,,,,,,,,,,,,,,,,,,,,,,,,,,,,,,,,,,,,,,,,,,,,,,,,,,,,,,,,,,,,,,,7,001,2,2,2018_Oct_02_1108,Dissertation,60.93996657689804,
,,,,,,,,,,,,,,,,,,,,,,,,,,,,,,,,,,,,,,,,,,,,,,,,,,,,,space,13.474095805024263,,,,,,,,,,,,,,,,,,,,,,,,,,,,,,,,,,,,,,,,,,,,,,,,,,,,,,,,,,,,,,,,,,,,,,,,,,,,,,,,,,,,,,,,,,,,,,,,,,7,001,2,2,2018_Oct_02_1108,Dissertation,60.93996657689804,
,,,,,,,,,,,,,,,,,,,,,,,,,,,,,,,,,,,,,,,,,,,,,,,,,,,,,,,space,7.207492119981907,,,,,,,,,,,,,,,,,,,,,,,,,,,,,,,,,,,,,,,,,,,,,,,,,,,,,,,,,,,,,,,,,,,,,,,,,,,,,,,,,,,,,,,,,,,,,,,,7,001,2,2,2018_Oct_02_1108,Dissertation,60.93996657689804,
incongruent_right,j,0,Your task is to read the sentence in the most natural way possible,You don't have to pay attention to the sentence.,Verdadero,Falso,j,practice,,,,,,,,,,,0,0,0,0,0,0,0,3,,,,,,,,,,,,,,,,,,,,,,,,,,,,,,,space,4.205140535021201,None,0,,,,,,,,,,,,,,,,,,,,,,,,,,,,,,,,,,,,,,,,,,,,,,,,,,,,,,,,,,,,,,,,,,,,,,,,,,,,,,,,,,,,,,,,,,,,7,001,2,2,2018_Oct_02_1108,Dissertation,60.93996657689804,
single_right,j,0,It's no problem if you need to guess the answer from time to time,It's important that you don't guess.,Verdadero,Falso,j,practice,,,,,,,,,,,0,0,0,0,0,1,1,5,,,,,,,,,,,,,,,,,,,,,,,,,,,,,,,,,None,0,,,,,,,,,,,,,,,,,,,,,,,,,,,,,,,,,,,,,,,,,,,,,,,,,,,,,,,,,,,,,,,,,,,,,,,,,,,,,,,,,,,,,,,,,,,,7,001,2,2,2018_Oct_02_1108,Dissertation,60.93996657689804,
incongruent_left,f,0,Sometimes they'll be short,All sentences are the same.,Verdadero,Falso,j,practice,,,,,,,,,,,0,0,0,0,0,2,2,2,,,,,,,,,,,,,,,,,,,,,,,,,,,,,,,,,f,1,1.1716251050238498,,,,,,,,,,,,,,,,,,,,,,,,,,,,,,,,,,,,,,,,,,,,,,,,,,,,,,,,,,,,,,,,,,,,,,,,,,,,,,,,,,,,,,,,,,,7,001,2,2,2018_Oct_02_1108,Dissertation,60.93996657689804,
congruent_right,j,1,Sometimes the sentences will be longer,Some sentences are long.,Verdadero,Falso,f,practice,,,,,,,,,,,0,0,0,0,0,3,3,1,,,,,,,,,,,,,,,,,,,,,,,,,,,,,,,,,j,1,0.4554354569991119,,,,,,,,,,,,,,,,,,,,,,,,,,,,,,,,,,,,,,,,,,,,,,,,,,,,,,,,,,,,,,,,,,,,,,,,,,,,,,,,,,,,,,,,,,,7,001,2,2,2018_Oct_02_1108,Dissertation,60.93996657689804,
single_left,f,0,The questions that follow each sentence sometimes will be obvious and sometimes more difficult ,The difficulty of each sentence varies.,Verdadero,Falso,f,practice,,,,,,,,,,,0,0,0,0,0,4,4,4,,,,,,,,,,,,,,,,,,,,,,,,,,,,,,,,,f,1,0.3728702549706213,,,,,,,,,,,,,,,,,,,,,,,,,,,,,,,,,,,,,,,,,,,,,,,,,,,,,,,,,,,,,,,,,,,,,,,,,,,,,,,,,,,,,,,,,,,7,001,2,2,2018_Oct_02_1108,Dissertation,60.93996657689804,
congruent_left,f,1,This is an example of the sentences you will see throughout the study,You just saw an example of a stimulus.,Verdadero,Falso,f,practice,,,,,,,,,,,0,0,0,0,0,5,5,0,,,,,,,,,,,,,,,,,,,,,,,,,,,,,,,,,f,1,0.44153430697042495,,,,,,,,,,,,,,,,,,,,,,,,,,,,,,,,,,,,,,,,,,,,,,,,,,,,,,,,,,,,,,,,,,,,,,,,,,,,,,,,,,,,,,,,,,,7,001,2,2,2018_Oct_02_1108,Dissertation,60.93996657689804,
incongruent_left,f,0,Sometimes they'll be short,All sentences are the same.,Verdadero,Falso,j,practice,,,,,,,,,,,0,0,0,0,1,0,6,2,,,,,,,,,,,,,,,,,,,,,,,,,,,,,,,,,f,1,0.41986769397044554,,,,,,,,,,,,,,,,,,,,,,,,,,,,,,,,,,,,,,,,,,,,,,,,,,,,,,,,,,,,,,,,,,,,,,,,,,,,,,,,,,,,,,,,,,,7,001,2,2,2018_Oct_02_1108,Dissertation,60.93996657689804,
incongruent_right,j,0,Your task is to read the sentence in the most natural way possible,You don't have to pay attention to the sentence.,Verdadero,Falso,j,practice,,,,,,,,,,,0,0,0,0,1,1,7,3,,,,,,,,,,,,,,,,,,,,,,,,,,,,,,,,,j,1,0.39134631399065256,,,,,,,,,,,,,,,,,,,,,,,,,,,,,,,,,,,,,,,,,,,,,,,,,,,,,,,,,,,,,,,,,,,,,,,,,,,,,,,,,,,,,,,,,,,7,001,2,2,2018_Oct_02_1108,Dissertation,60.93996657689804,
congruent_left,f,1,This is an example of the sentences you will see throughout the study,You just saw an example of a stimulus.,Verdadero,Falso,f,practice,,,,,,,,,,,0,0,0,0,1,2,8,0,,,,,,,,,,,,,,,,,,,,,,,,,,,,,,,,,f,1,0.40454995399340987,,,,,,,,,,,,,,,,,,,,,,,,,,,,,,,,,,,,,,,,,,,,,,,,,,,,,,,,,,,,,,,,,,,,,,,,,,,,,,,,,,,,,,,,,,,7,001,2,2,2018_Oct_02_1108,Dissertation,60.93996657689804,
single_right,j,0,It's no problem if you need to guess the answer from time to time,It's important that you don't guess.,Verdadero,Falso,j,practice,,,,,,,,,,,0,0,0,0,1,3,9,5,,,,,,,,,,,,,,,,,,,,,,,,,,,,,,,,,j,1,0.26973220199579373,,,,,,,,,,,,,,,,,,,,,,,,,,,,,,,,,,,,,,,,,,,,,,,,,,,,,,,,,,,,,,,,,,,,,,,,,,,,,,,,,,,,,,,,,,,7,001,2,2,2018_Oct_02_1108,Dissertation,60.93996657689804,
congruent_right,j,1,Sometimes the sentences will be longer,Some sentences are long.,Verdadero,Falso,f,practice,,,,,,,,,,,0,0,0,0,1,4,10,1,,,,,,,,,,,,,,,,,,,,,,,,,,,,,,,,,j,1,0.33987151697510853,,,,,,,,,,,,,,,,,,,,,,,,,,,,,,,,,,,,,,,,,,,,,,,,,,,,,,,,,,,,,,,,,,,,,,,,,,,,,,,,,,,,,,,,,,,7,001,2,2,2018_Oct_02_1108,Dissertation,60.93996657689804,
single_left,f,0,The questions that follow each sentence sometimes will be obvious and sometimes more difficult ,The difficulty of each sentence varies.,Verdadero,Falso,f,practice,,,,,,,,,,,0,0,0,0,1,5,11,4,,,,,,,,,,,,,,,,,,,,,,,,,,,,,,,,,f,1,0.34017570497235283,,,,,,,,,,,,,,,,,,,,,,,,,,,,,,,,,,,,,,,,,,,,,,,,,,,,,,,,,,,,,,,,,,,,,,,,,,,,,,,,,,,,,,,,,,,7,001,2,2,2018_Oct_02_1108,Dissertation,60.93996657689804,
congruent_right,j,1,Sometimes the sentences will be longer,Some sentences are long.,Verdadero,Falso,f,practice,,,,,,,,,,,0,0,0,0,2,0,12,1,,,,,,,,,,,,,,,,,,,,,,,,,,,,,,,,,j,1,0.30582294502528384,,,,,,,,,,,,,,,,,,,,,,,,,,,,,,,,,,,,,,,,,,,,,,,,,,,,,,,,,,,,,,,,,,,,,,,,,,,,,,,,,,,,,,,,,,,7,001,2,2,2018_Oct_02_1108,Dissertation,60.93996657689804,
single_left,f,0,The questions that follow each sentence sometimes will be obvious and sometimes more difficult ,The difficulty of each sentence varies.,Verdadero,Falso,f,practice,,,,,,,,,,,0,0,0,0,2,1,13,4,,,,,,,,,,,,,,,,,,,,,,,,,,,,,,,,,f,1,0.3224767000065185,,,,,,,,,,,,,,,,,,,,,,,,,,,,,,,,,,,,,,,,,,,,,,,,,,,,,,,,,,,,,,,,,,,,,,,,,,,,,,,,,,,,,,,,,,,7,001,2,2,2018_Oct_02_1108,Dissertation,60.93996657689804,
single_right,j,0,It's no problem if you need to guess the answer from time to time,It's important that you don't guess.,Verdadero,Falso,j,practice,,,,,,,,,,,0,0,0,0,2,2,14,5,,,,,,,,,,,,,,,,,,,,,,,,,,,,,,,,,j,1,0.33912057196721435,,,,,,,,,,,,,,,,,,,,,,,,,,,,,,,,,,,,,,,,,,,,,,,,,,,,,,,,,,,,,,,,,,,,,,,,,,,,,,,,,,,,,,,,,,,7,001,2,2,2018_Oct_02_1108,Dissertation,60.93996657689804,
incongruent_left,f,0,Sometimes they'll be short,All sentences are the same.,Verdadero,Falso,j,practice,,,,,,,,,,,0,0,0,0,2,3,15,2,,,,,,,,,,,,,,,,,,,,,,,,,,,,,,,,,f,1,0.40557848202297464,,,,,,,,,,,,,,,,,,,,,,,,,,,,,,,,,,,,,,,,,,,,,,,,,,,,,,,,,,,,,,,,,,,,,,,,,,,,,,,,,,,,,,,,,,,7,001,2,2,2018_Oct_02_1108,Dissertation,60.93996657689804,
congruent_left,f,1,This is an example of the sentences you will see throughout the study,You just saw an example of a stimulus.,Verdadero,Falso,f,practice,,,,,,,,,,,0,0,0,0,2,4,16,0,,,,,,,,,,,,,,,,,,,,,,,,,,,,,,,,,f,1,0.3193311379873194,,,,,,,,,,,,,,,,,,,,,,,,,,,,,,,,,,,,,,,,,,,,,,,,,,,,,,,,,,,,,,,,,,,,,,,,,,,,,,,,,,,,,,,,,,,7,001,2,2,2018_Oct_02_1108,Dissertation,60.93996657689804,
incongruent_right,j,0,Your task is to read the sentence in the most natural way possible,You don't have to pay attention to the sentence.,Verdadero,Falso,j,practice,,,,,,,,,,,0,0,0,0,2,5,17,3,,,,,,,,,,,,,,,,,,,,,,,,,,,,,,,,,j,1,0.4060534280142747,,,,,,,,,,,,,,,,,,,,,,,,,,,,,,,,,,,,,,,,,,,,,,,,,,,,,,,,,,,,,,,,,,,,,,,,,,,,,,,,,,,,,,,,,,,7,001,2,2,2018_Oct_02_1108,Dissertation,60.93996657689804,
congruent_left,f,1,This is an example of the sentences you will see throughout the study,You just saw an example of a stimulus.,Verdadero,Falso,f,practice,,,,,,,,,,,0,0,0,0,3,0,18,0,,,,,,,,,,,,,,,,,,,,,,,,,,,,,,,,,f,1,0.27133057004539296,,,,,,,,,,,,,,,,,,,,,,,,,,,,,,,,,,,,,,,,,,,,,,,,,,,,,,,,,,,,,,,,,,,,,,,,,,,,,,,,,,,,,,,,,,,7,001,2,2,2018_Oct_02_1108,Dissertation,60.93996657689804,
incongruent_right,j,0,Your task is to read the sentence in the most natural way possible,You don't have to pay attention to the sentence.,Verdadero,Falso,j,practice,,,,,,,,,,,0,0,0,0,3,1,19,3,,,,,,,,,,,,,,,,,,,,,,,,,,,,,,,,,j,1,0.40366210701176897,,,,,,,,,,,,,,,,,,,,,,,,,,,,,,,,,,,,,,,,,,,,,,,,,,,,,,,,,,,,,,,,,,,,,,,,,,,,,,,,,,,,,,,,,,,7,001,2,2,2018_Oct_02_1108,Dissertation,60.93996657689804,
incongruent_left,f,0,Sometimes they'll be short,All sentences are the same.,Verdadero,Falso,j,practice,,,,,,,,,,,0,0,0,0,3,2,20,2,,,,,,,,,,,,,,,,,,,,,,,,,,,,,,,,,f,1,0.4062720920192078,,,,,,,,,,,,,,,,,,,,,,,,,,,,,,,,,,,,,,,,,,,,,,,,,,,,,,,,,,,,,,,,,,,,,,,,,,,,,,,,,,,,,,,,,,,7,001,2,2,2018_Oct_02_1108,Dissertation,60.93996657689804,
congruent_right,j,1,Sometimes the sentences will be longer,Some sentences are long.,Verdadero,Falso,f,practice,,,,,,,,,,,0,0,0,0,3,3,21,1,,,,,,,,,,,,,,,,,,,,,,,,,,,,,,,,,j,1,0.372443989966996,,,,,,,,,,,,,,,,,,,,,,,,,,,,,,,,,,,,,,,,,,,,,,,,,,,,,,,,,,,,,,,,,,,,,,,,,,,,,,,,,,,,,,,,,,,7,001,2,2,2018_Oct_02_1108,Dissertation,60.93996657689804,
single_left,f,0,The questions that follow each sentence sometimes will be obvious and sometimes more difficult ,The difficulty of each sentence varies.,Verdadero,Falso,f,practice,,,,,,,,,,,0,0,0,0,3,4,22,4,,,,,,,,,,,,,,,,,,,,,,,,,,,,,,,,,f,1,0.4051611350150779,,,,,,,,,,,,,,,,,,,,,,,,,,,,,,,,,,,,,,,,,,,,,,,,,,,,,,,,,,,,,,,,,,,,,,,,,,,,,,,,,,,,,,,,,,,7,001,2,2,2018_Oct_02_1108,Dissertation,60.93996657689804,
single_right,j,0,It's no problem if you need to guess the answer from time to time,It's important that you don't guess.,Verdadero,Falso,j,practice,,,,,,,,,,,0,0,0,0,3,5,23,5,,,,,,,,,,,,,,,,,,,,,,,,,,,,,,,,,j,1,0.32277065998641774,,,,,,,,,,,,,,,,,,,,,,,,,,,,,,,,,,,,,,,,,,,,,,,,,,,,,,,,,,,,,,,,,,,,,,,,,,,,,,,,,,,,,,,,,,,7,001,2,2,2018_Oct_02_1108,Dissertation,60.93996657689804,
,,,,,,,,,,,,,,,,,,,0,0,0,0,,,,,,,,,,,,,,,,,,,,,,,,,,,,,,,,,,,,,,,,,,,,,,,,,,,,,,,,,,,,,,,,,,,,,,,,,,,,,,,,,,,,,,,,,,,,,,,,,,,,,,,,,,,,,,,,,,,,,,,,,,,,,,,,,,7,001,2,2,2018_Oct_02_1108,Dissertation,60.93996657689804,
,,,,,,,,,,,,,,,,,,,,,,,,,,,,,,,,,,,,,,,,,,,,,,,,,,,,,,,,,,,,,,space,20.472530084021855,,,,,,,,,,,,,,,,,,,,,,,,,,,,,,,,,,,,,,,,,,,,,,,,,,,,,,,,,,,,,,,,,,,,,,,,,,,,,,,,,,,,,,,,,7,001,2,2,2018_Oct_02_1108,Dissertation,60.93996657689804,
,,,,,,,,,,,,,,,,,,,,,,,,,,,,,,,,,,,,,,,,,,,,,,,,,,,,,,,,,,,,,,,,space,12.889118062972557,,,,,,,,,,,,,,,,,,,,,,,,,,,,,,,,,,,,,,,,,,,,,,,,,,,,,,,,,,,,,,,,,,,,,,,,,,,,,,,,,,,,,,,7,001,2,2,2018_Oct_02_1108,Dissertation,60.93996657689804,
congruent_left,f,1,This is an example of the sentences you will see throughout the study,You just saw an example of a stimulus.,Verdadero,Falso,f,practice,,,,,,,,,,,,,,,,,,,0,0,0,0,0,0,0,0,,,,,,,,,,,,,,,,,,,,,,,,,,,,,,,,space,1.2247243500314653,0.8362565890420228,0.8237928500166163,0.8362565890420228,0.5842609649989754,0.5556804549996741,1.4205175540409982,0.5185928849969059,0.4855078919790685,1.9391104390379041,0.43418602499878034,0.4058468900038861,2.3732964640366845,0.43461574998218566,0.4070573119679466,2.80791221401887,0.38490158499917015,0.35634457296691835,3.1928137990180403,0.4170330300112255,0.38961520994780585,3.609846829029266,0.4344391149934381,0.4039028979605064,4.044285944022704,0.4346596850082278,0.4051719050039537,4.478945629030932,0.3843010949785821,0.35565016994951293,4.863246724009514,0.4015004980028607,0.36805444495985284,5.2647472220123746,0.384185872040689,0.3517694619949907,5.6489330940530635,0.48445941298268735,0.45546336501138285,6.133392507035751,f,1,2.4774103019735776,,,,,,,,,,,,,,,,,,,,,,,,,,,,,,,,,,,,,,,,,,,7,001,2,2,2018_Oct_02_1108,Dissertation,60.93996657689804,
congruent_right,j,1,Sometimes the sentences will be longer,Some sentences are long.,Verdadero,Falso,f,practice,,,,,,,,,,,,,,,,,,,0,0,0,0,0,1,1,1,,,,,,,,,,,,,,,,,,,,,,,,,,,,,,,,,,0.6953084170236252,0.6833484719973058,0.6953084170236252,0.6177509980043396,0.5891450679628178,1.3130594150279649,0.5340401529683731,0.5039435880025849,1.847099567996338,0.6022820920334198,0.5738112910185009,2.4493816600297578,0.534992492001038,0.5065579580259509,2.984374152030796,0.5339767159894109,0.5026673339889385,3.5183508680202067,,,,,,,,,,,,,,,,,,,,,,f,1,2.1263373849797063,,,,,,,,,,,,,,,,,,,,,,,,,,,,,,,,,,,,,,,,,,,7,001,2,2,2018_Oct_02_1108,Dissertation,60.93996657689804,
incongruent_left,f,0,Sometimes they'll be short,All sentences are the same.,Verdadero,Falso,j,practice,,,,,,,,,,,,,,,,,,,0,0,0,0,0,2,2,2,,,,,,,,,,,,,,,,,,,,,,,,,,,,,,,,,,0.4285546730388887,0.4189462149515748,0.4285546730388887,0.4176463119802065,0.3886647229664959,0.8462009850190952,0.41725257301004604,0.3887665279908106,1.2634535580291413,0.3671889220131561,0.3368416180019267,1.6306424800422974,,,,,,,,,,,,,,,,,,,,,,,,,,,,j,1,2.111408226948697,,,,,,,,,,,,,,,,,,,,,,,,,,,,,,,,,,,,,,,,,,,7,001,2,2,2018_Oct_02_1108,Dissertation,60.93996657689804,
incongruent_right,j,0,Your task is to read the sentence in the most natural way possible,You don't have to pay attention to the sentence.,Verdadero,Falso,j,practice,,,,,,,,,,,,,,,,,,,0,0,0,0,0,3,3,3,,,,,,,,,,,,,,,,,,,,,,,,,,,,,,,,,,0.6117123499861918,0.599558360001538,0.6117123499861918,0.4176429249928333,0.3902438200311735,1.0293552749790251,0.41750455502187833,0.3884949400089681,1.4468598300009035,0.35034280497347936,0.32208979298593476,1.7972026349743828,0.3510970630450174,0.3218549399753101,2.1482996980194002,0.4184012319892645,0.38864400004968047,2.5667009300086647,0.29986191797070205,0.271836967964191,2.866562847979367,0.33415139198768884,0.30584849300794303,3.2007142399670556,0.35214502504095435,0.3234671659884043,3.55285926500801,0.3335711979889311,0.30476013699080795,3.886430462996941,0.4183241070131771,0.3894227849668823,4.304754570010118,0.41775960999075323,0.38621581200277433,4.722514180000871,0.31641387997660786,0.2881227830075659,5.038928059977479,j,1,2.0897698600310832,,,,,,,,,,,,,,,,,,,,,,,,,,,,,,,,,,,,,,,,,,,7,001,2,2,2018_Oct_02_1108,Dissertation,60.93996657689804,
single_left,f,0,The questions that follow each sentence sometimes will be obvious and sometimes more difficult ,The difficulty of each sentence varies.,Verdadero,Falso,f,practice,,,,,,,,,,,,,,,,,,,0,0,0,0,0,4,4,4,,,,,,,,,,,,,,,,,,,,,,,,,,,,,,,,,,0.564657051989343,0.5484054870321415,0.564657051989343,0.3519731580163352,0.3227661869605072,0.9166302100056782,0.3835022549610585,0.35064909799257293,1.3001324649667367,0.35055571200791746,0.3212917430209927,1.6506881769746542,0.3344119780231267,0.3041431169840507,1.985100154997781,0.36841507197823375,0.3392170080333017,2.3535152269760147,0.36657857499085367,0.33349551603896543,2.7200938019668683,0.3182750580017455,0.28811029001371935,3.038368859968614,0.3672345770173706,0.3381352929864079,3.4056034369859844,0.33507274801377207,0.30615976004628465,3.7406761849997565,0.3836467299843207,0.35485455696471035,4.124322914984077,0.4853978820028715,0.4553497330052778,4.609720796986949,0.3337455230066553,0.30585576401790604,4.943466319993604,f,1,1.5545597820309922,0.40110483998432755,0.37252441997407004,5.3445711599779315,,,,,,,,,,,,,,,,,,,,,,,,,,,,,,,,,,,,,,,,7,001,2,2,2018_Oct_02_1108,Dissertation,60.93996657689804,
single_right,j,0,It's no problem if you need to guess the answer from time to time,It's important that you don't guess.,Verdadero,Falso,j,practice,,,,,,,,,,,,,,,,,,,0,0,0,0,0,5,5,5,,,,,,,,,,,,,,,,,,,,,,,,,,,,,,,,,,0.41509545501321554,0.40479627903550863,0.41509545501321554,0.4006832849700004,0.36786812799982727,0.8157787399832159,0.3684077999787405,0.33892068499699235,1.1841865399619564,0.36670972005231306,0.3377547399722971,1.5508962600142695,0.3513166749617085,0.3049383850302547,1.902212934975978,0.35103399003855884,0.3222275919979438,2.253246925014537,0.5844046519487165,0.5561480380129069,2.8376515769632533,0.3000596020137891,0.26751997898099944,3.1377111789770424,0.384990546037443,0.35234698199201375,3.5227017250144854,0.3181246499880217,0.2848103719879873,3.840826375002507,0.3344469599542208,0.2859248240129091,4.175273334956728,0.31659807602409273,0.2709313979721628,4.491871410980821,0.3008804590208456,0.2706660609692335,4.792751870001666,j,1,1.8427660779561847,0.28422594198491424,0.2556672689970583,5.0769778119865805,,,,,,,,,,,,,,,,,,,,,,,,,,,,,,,,,,,,,,,,7,001,2,2,2018_Oct_02_1108,Dissertation,60.93996657689804,
,,,,,,,,,,,,,,,,,,,,,,,,,,,0,0,0,0,,,,,,,,,,,,,,,,,,,,,,,,,,,,,,,,,,,,,,,,,,,,,,,,,,,,,,,,,,,,,,,,,,,,,,,,,,,,,,,,,,,,,,,,,,,,,,,,,,,,,,,,,,,,,,,,,,,,,,,,,,7,001,2,2,2018_Oct_02_1108,Dissertation,60.93996657689804,
,,,,,,,,,,,,,,,,,,,,,,,,,,,,,,,,,,,,,,,,,,,,,,,,,,,,,,,,,,,,,,,,,,,,,,,,,,,,,,,,,,,,,,,,,,,,,,,,,,,,,,,,,,,,,,,,,space,33.70165773801273,,,,,,,,,,,,,,,,,,,,,,,,,,,,,,,,,,,,,,7,001,2,2,2018_Oct_02_1108,Dissertation,60.93996657689804,
,,None,,,Verdadero,Falso,f,None,single_right,La madre de Julieta vive en Filadelfia así que Julieta la visita mucho,None,None,None,None,j,None,0,Julieta y su madre se ven mucho.,,,,,,,,,,,,,,,,,0,0,0,0,0,0,0,4,,,,,,,,,,,,,,,,,,,,,,,,,,0.700612562999595,0.6847429249901325,0.700612562999595,0.3672657069982961,0.3373298079823144,1.067878269997891,0.48547738301567733,0.45604179496876895,1.5533556530135684,0.383079043996986,0.3532100640004501,1.9364346970105544,0.5350052280118689,0.5056554300244898,2.4714399250224233,0.4340877579525113,0.40584926499286667,2.9055276829749346,0.41942256200127304,0.3732229440356605,3.3249502449762076,1.2686096130055375,1.2389995779958554,4.593559857981745,0.5862853649887256,0.5523386180284433,5.179845222970471,0.4512596720014699,0.4188187849940732,5.631104894971941,0.5843629100127146,0.5559116119984537,6.215467804984655,0.351167352986522,0.3179162750020623,6.566635157971177,0.6517564420355484,0.6230338299646974,7.218391600006726,,,,,,,,,space,6.372250546992291,j,1,0.518614617001731,f,1,2.227684745041188,None,,,,,,,,,,,,,,,,,,,,,,,,,,,,,7,001,2,2,2018_Oct_02_1108,Dissertation,60.93996657689804,
,,None,,,Verdadero,Falso,f,None,congruent_right,Me gusta vivir en la ciudad de Washington porque tiene mucha historia,None,None,None,None,j,None,0,Estoy contento viviendo en D.C.,,,,,,,,,,,,,,,,,0,0,0,0,0,1,1,3,,,,,,,,,,,,,,,,,,,,,,,,,,0.6343119569937699,0.62178921996383,0.6343119569937699,0.4011618100339547,0.37296121497638524,1.0354737670277245,0.4837557880091481,0.45183295401511714,1.5192295550368726,0.4512834519846365,0.4220589820179157,1.970513007021509,0.46815916296327487,0.42163433000678197,2.438672169984784,0.41790133505128324,0.38893398200161755,2.856573505036067,0.41676921595353633,0.3867101260111667,3.2733427209896035,0.40266196604352444,0.37298777501564473,3.676004687033128,0.45017655997071415,0.4230424999841489,4.126181247003842,0.4008264800067991,0.37099649995798245,4.527007727010641,0.4525286799762398,0.4222015929990448,4.979536406986881,0.367470350000076,0.3387213600217365,5.347006756986957,,,,,,,,,,,,,,j,1,0.6539677300024778,f,1,2.360514661995694,None,,,,,,,,,,,,,,,,,,,,,,,,,,,,,7,001,2,2,2018_Oct_02_1108,Dissertation,60.93996657689804,
,,None,,,Verdadero,Falso,j,None,congruent_left,El chico corrió en el parque ayer,None,None,None,None,f,None,0,El chico no hizo nada ayer.,,,,,,,,,,,,,,,,,0,0,0,0,0,2,2,0,,,,,,,,,,,,,,,,,,,,,,,,,,0.40041474299505353,0.392255972023122,0.40041474299505353,0.400859292014502,0.3720914699952118,0.8012740350095555,0.43473522301064804,0.4061736980220303,1.2360092580202036,0.4843392049660906,0.4552132399985567,1.7203484629862942,0.4515624920022674,0.4186963349930011,2.1719109549885616,0.4509156800340861,0.4183380970498547,2.6228266350226477,0.4510186549741775,0.4182578300242312,3.073845289996825,,,,,,,,,,,,,,,,,,,,,,,,,,,,,f,1,0.587955282011535,j,1,1.6552021029638126,None,,,,,,,,,,,,,,,,,,,,,,,,,,,,,7,001,2,2,2018_Oct_02_1108,Dissertation,60.93996657689804,
,,None,,,Verdadero,Falso,j,None,incongruent_left,Mi estación preferida es el verano,None,None,None,None,f,None,0,Me gusta el invierno más que las otras estaciones.,,,,,,,,,,,,,,,,,0,0,0,0,0,3,3,1,,,,,,,,,,,,,,,,,,,,,,,,,,0.41685469303047284,0.4082990909810178,0.41685469303047284,0.4011525569949299,0.3680446819635108,0.8180072500254028,0.5681674029910937,0.5399311250075698,1.3861746530164964,0.7182425750070252,0.6850446600001305,2.1044172280235216,0.4182687219581567,0.38904974999604747,2.5226859499816783,0.4344265949912369,0.4051014450378716,2.957112544972915,,,,,,,,,,,,,,,,,,,,,,,,,,,,,,,,f,1,0.49010220501804724,j,1,2.4116423099767417,None,,,,,,,,,,,,,,,,,,,,,,,,,,,,,7,001,2,2,2018_Oct_02_1108,Dissertation,60.93996657689804,
,,None,,,Verdadero,Falso,f,None,incongruent_right,Estudio mucho durante la semana para poder divertirme durante el fin de semana,None,None,None,None,j,None,0,No voy a la biblioteca mucho los fines de semana.,,,,,,,,,,,,,,,,,0,0,0,0,0,4,4,2,,,,,,,,,,,,,,,,,,,,,,,,,,0.50053282501176,0.48636131500825286,0.50053282501176,0.6010083250002936,0.5715822100173682,1.1015411500120535,0.5357581750140525,0.4854151699692011,1.637299325026106,0.5179117179941386,0.48913590697338805,2.1552110430202447,0.4177524919505231,0.3851833799853921,2.572963534970768,0.43466735002584755,0.401703373005148,3.0076308849966154,0.41778813797282055,0.3847442899714224,3.425419022969436,0.43443564703920856,0.40180229797260836,3.8598546700086445,0.5336006300058216,0.5049739049864002,4.393455300014466,0.4352513179765083,0.40532770700519904,4.828706617990974,0.4009564649895765,0.37217619799776,5.229663082980551,0.4014088650001213,0.37179442000342533,5.631071947980672,0.3014723469968885,0.2727984800003469,5.932544294977561,,,,,,,,,,,j,1,0.7220811580191366,f,1,4.634012006979901,None,,,,,,,,,,,,,,,,,,,,,,,,,,,,,7,001,2,2,2018_Oct_02_1108,Dissertation,60.93996657689804,
,,None,,,Verdadero,Falso,j,None,single_left,A Iván le gusta cocinar y toma clases de gastronomía,None,None,None,None,f,None,0,Iván cocina mucho.,,,,,,,,,,,,,,,,,0,0,0,0,0,5,5,5,,,,,,,,,,,,,,,,,,,,,,,,,,0.45009341201512143,0.43874254199909046,0.45009341201512143,0.3674498929758556,0.3389695949736051,0.817543304990977,0.6017165119992569,0.5743567100143991,1.419259816990234,0.3836000779992901,0.35138077003648505,1.802859894989524,0.4021871850127354,0.37244101997930557,2.2050470800022595,0.5010082970256917,0.4726947200251743,2.706055377027951,0.3337097099865787,0.3006048380048014,3.03976508701453,0.41813301300862804,0.3885648000286892,3.457898100023158,0.8522603049641475,0.823130874952767,4.310158404987305,0.33495952701196074,0.30546732200309634,4.645117931999266,,,,,,,,,,,,,,,,,,,,f,1,0.48916869197273627,f,0,1.604913579998538,None,,,,,,,,,,,,,,,,,,,,,,,,,,,,,7,001,2,2,2018_Oct_02_1108,Dissertation,60.93996657689804,
,,,,,,,,,,,,,,,,,,,,,,,,,,,,,,,,,,,0,0,0,0,,,,,,,,,,,,,,,,,,,,,,,,,,,,,,,,,,,,,,,,,,,,,,,,,,,,,,,,,,,,,,,,,,,,,,,,,,,,,,,,,,,,,,,,,,,,,,,,,,,,,,,,,,,,,,,,,,7,001,2,2,2018_Oct_02_1108,Dissertation,60.93996657689804,
,,,,,,,,,,,,,,,,,,,,,,,,,,,,,,,,,,,,,,,,,,,,,,,,,,,,,,,,,,,,,,,,,,,,,,,,,,,,,,,,,,,,,,,,,,,,,,,,,,,,,,,,,,,,,,,,,,,,,,,,,,,,space,19.45279383502202,,,,,,,,,,,,,,,,,,,,,,,,,,,7,001,2,2,2018_Oct_02_1108,Dissertation,60.93996657689804,
,,1,,,Verdadero,Falso,j,B,congruent_left,No aceptaron a las mujeres en el club por sus prejuicios,0,0,0,0,f,0,259,Las mujeres tenían muchos prejuicios.,,,,,,,,,,,,,,,,,,,,,,,,,0,0,0,0,0,0,0,58,,,,,,,,,,,,,,,,,,0.8017306120018475,0.7894805839750916,0.8017306120018475,0.33376988500822335,0.30536854499951005,1.1355004970100708,0.6349927830160595,0.6061044249800034,1.7704932800261304,0.384357729984913,0.3547363599645905,2.1548510100110434,0.38377295999089256,0.35441175498999655,2.538623970001936,0.43530721199931577,0.401890033041127,2.9739311820012517,0.36740307504078373,0.3339373600319959,3.3413342570420355,0.3843078750069253,0.35448826797073707,3.7256421320489608,0.5180770849692635,0.48551233200123534,4.243719217018224,0.36805948498658836,0.33981543499976397,4.611778702004813,0.36786057002609596,0.33927282301010564,4.979639272030909,,,,,,,,,,,,,,,,,f,1,0.5711490899557248,f,0,2.060268043016549,,,,None,None,,,,,,,,,,,,,,,,,,,,,,,,,7,001,2,2,2018_Oct_02_1108,Dissertation,60.93996657689804,
,,1,,,Verdadero,Falso,j,B,congruent_left,La arquitecta puso los planos que sus compañeros le dejaron en su oficina encima de la mesa para verlos bien,1,1,0,0,f,0,35,La arquitecta sacó los planos de su bolsa.,,,,,,,,,,,,,,,,,,,,,,,,,0,0,0,0,0,1,1,14,,,,,,,,,,,,,,,,,,0.45027484197635204,0.43301078997319564,0.45027484197635204,0.35102703503798693,0.32173195999348536,0.801301877014339,0.5845883549773134,0.5517843799898401,1.3858902319916524,0.4185386230237782,0.3895374819985591,1.8044288550154306,0.4343518099631183,0.3888759179972112,2.238780664978549,0.4003645620541647,0.37119787000119686,2.6391452270327136,0.38476454495685175,0.3359671999933198,3.0239097719895653,0.43392164999386296,0.40418593998765573,3.4578314219834283,0.6193573930067942,0.5900303230155259,4.0771888149902225,0.4174847250105813,0.38870019995374605,4.494673540000804,0.6013539020204917,0.5730947419651784,5.096027442021295,0.434856197971385,0.40136889199493453,5.53088363999268,0.400994831987191,0.36850368801970035,5.931878471979871,,,,0.4345840150490403,0.4055513829807751,6.366462487028912,,,,,f,1,0.4541609500302002,j,1,2.7074399029952474,,,,None,None,0.4510550779523328,0.42237321997527033,6.8175175649812445,0.434419492026791,0.401617327996064,7.2519370570080355,0.3340194780030288,0.30103423702530563,7.585956535011064,0.3678833119920455,0.3388689970015548,7.95383984700311,0.3672604350140318,0.3381164200254716,8.321100282017142,0.3849922730005346,0.3556133849779144,8.706092555017676,,,,,,,7,001,2,2,2018_Oct_02_1108,Dissertation,60.93996657689804,
,,1,,,Verdadero,Falso,f,B,congruent_left,"Entre los amigos en la fiesta de Luis estaban sus hermanos, Marisa y Germán ",0,0,0,0,f,0,255,María y Germán son amigos de Luis.,,,,,,,,,,,,,,,,,,,,,,,,,0,0,0,0,0,2,2,54,,,,,,,,,,,,,,,,,,0.4502666679909453,0.4368531630025245,0.4502666679909453,0.46762090700212866,0.43818292301148176,0.9178875749930739,0.36813019000692293,0.3389103129738942,1.2860177649999969,0.38421885296702385,0.3552262050216086,1.6702366179670207,0.31759018200682476,0.2887221970013343,1.9878267999738455,0.3674180129892193,0.33865613501984626,2.3552448129630648,0.36751678999280557,0.338007349986583,2.7227616029558703,0.36838581005577,0.33888384205056354,3.0911474130116403,0.40131219499744475,0.369360284996219,3.492459608009085,0.5167675369884819,0.4882361849886365,4.009227144997567,0.5353384079644457,0.5055046899942681,4.544565552962013,0.5681852250127122,0.5390806950163096,5.112750777974725,0.7853604670381173,0.7563724580104463,5.898111245012842,,,,0.5017146099708043,0.47333685198100284,6.399825854983646,,,,,f,1,0.4398779399925843,f,1,5.263974534987938,,,,None,None,,,,,,,,,,,,,,,,,,,,,,,,,7,001,2,2,2018_Oct_02_1108,Dissertation,60.93996657689804,
,,0,,,Verdadero,Falso,f,B,incongruent_right,Siempre que mi hermana sale el carro se queda sin gasolina,0,1,1,0,j,0,103,Mi hermana no rellena el tanque.,,,,,,,,,,,,,,,,,,,,,,,,,0,0,0,0,0,3,3,21,,,,,,,,,,,,,,,,,,0.433756751997862,0.4237623799708672,0.433756751997862,0.43480732303578407,0.4055808899574913,0.8685640750336461,0.34978500701254234,0.31742096203379333,1.2183490820461884,0.36860503000207245,0.33460699499119073,1.5869541120482609,0.4342678799876012,0.4054641200345941,2.021221992035862,0.36793393798870966,0.3354063350125216,2.3891559300245717,0.3839583999942988,0.3557891949894838,2.7731143300188705,0.5348583119921386,0.5065079759806395,3.307972642011009,0.4511151750339195,0.42282219999469817,3.7590878170449287,0.3673702329979278,0.33840885502286255,4.1264580500428565,0.4015706600039266,0.3727292149560526,4.528028710046783,,,,,,,,,,,,,,,,,j,1,0.7199311449658126,f,1,1.859968735021539,,,,None,None,,,,,,,,,,,,,,,,,,,,,,,,,7,001,2,2,2018_Oct_02_1108,Dissertation,60.93996657689804,
,,0,,,Verdadero,Falso,f,B,incongruent_left,Cuando la participante adivinó la respuesta apareció en la pantalla,1,1,1,0,f,1,28,La participante está en un concurso.,,,,,,,,,,,,,,,,,,,,,,,,,0,0,0,0,0,4,4,7,,,,,,,,,,,,,,,,,,0.5346870750072412,0.5122034740052186,0.5346870750072412,0.5174726299592294,0.4892639219760895,1.0521597049664706,0.3512406450463459,0.3219220050377771,1.4034003500128165,0.6517490950063802,0.623163057025522,2.0551494450191967,0.7524453779915348,0.7201297400170006,2.8075948230107315,0.5511819769744761,0.5229339799843729,3.3587767999852076,0.8353351500118151,0.8057146150385961,4.194111949997023,1.2704301250050776,1.2369251499767415,5.4645420750021,0.383240497962106,0.3533458550227806,5.847782572964206,0.3850996370310895,0.35496914299437776,6.232882209995296,,,,,,,,,,,,,,,,,,,,f,1,0.8070616349577904,f,1,5.519236522028223,,,,None,None,,,,,,,,,,,,,,,,,,,,,,,,,7,001,2,2,2018_Oct_02_1108,Dissertation,60.93996657689804,
,,0,,,Verdadero,Falso,j,B,incongruent_left,Los novios montaron la sofá que su amigo les dejó en la sala de su nuevo piso ,0,1,1,0,f,0,118,Los novios compró la sofá nueva.,,,,,,,,,,,,,,,,,,,,,,,,,0,0,0,0,0,5,5,28,,,,,,,,,,,,,,,,,,0.43366005999268964,0.4153256380232051,0.43366005999268964,0.40111674001673236,0.37204947497230023,0.834776800009422,0.4499189250054769,0.42202437500236556,1.284695725014899,0.9203820149996318,0.886838934966363,2.2050777400145307,0.4004364649881609,0.37210303504252806,2.6055142050026916,0.3844337399932556,0.35130405495874584,2.989947944995947,0.35083499300526455,0.31846867001149803,3.3407829380012117,0.5015744569827802,0.4691199180088006,3.842357394983992,0.4840384229901247,0.45469873200636357,4.326395817974117,0.3347983999992721,0.3048710920265876,4.661194217973389,0.7518523150356486,0.7054828519467264,5.413046533009037,0.434934971970506,0.40599274198757485,5.847981504979543,0.4008751279907301,0.35535957803949714,6.2488566329702735,,,,0.4508168669999577,0.4210851229727268,6.699673499970231,,,,,f,1,0.5391491400077939,f,0,4.279369366005994,,,,None,None,0.43521080003120005,0.405305286985822,7.134884300001431,0.3669206229969859,0.3377533400198445,7.501804922998417,0.5019747819751501,0.4729723980417475,8.003779704973567,,,,,,,,,,,,,,,,7,001,2,2,2018_Oct_02_1108,Dissertation,60.93996657689804,
,,1,,,Verdadero,Falso,j,B,congruent_right,Amalia puso el jamón que sus hermanos dejaron en los platos en el refrigerador después de que comieron,1,1,0,0,j,0,34,Los hermanos ordenaron la mesa después de comer. ,,,,,,,,,,,,,,,,,,,,,,,,,0,0,0,0,0,6,6,13,,,,,,,,,,,,,,,,,,0.6342676149797626,0.6148087719921023,0.6342676149797626,0.7681192950112745,0.7392168219666928,1.402386909991037,0.5009386129677296,0.47188581997761503,1.9033255229587667,0.3853948350297287,0.35589961300138384,2.2887203579884954,0.484506546985358,0.45536672498565167,2.7732269049738534,0.41757751000113785,0.3884010050096549,3.1908044149749912,0.7187445830204524,0.6896390899783,3.9095489979954436,0.3846197900129482,0.3555811199476011,4.294168788008392,0.6014165619853884,0.5731901330291294,4.89558534999378,0.45148360496386886,0.4233061029808596,5.347068954957649,0.3337142000091262,0.3008845550357364,5.680783154966775,0.4681640050257556,0.4390362600097433,6.148947159992531,0.3674541150103323,0.3387253530090675,6.516401275002863,,,,0.367203822999727,0.33874651504447684,6.88360509800259,,,,,j,1,0.8025087349815294,j,1,3.163464267970994,,,,None,None,0.5179825669620186,0.49009119701804593,7.401587664964609,0.4185228400165215,0.38925372500671074,7.82011050498113,0.36806706502102315,0.33935061999363825,8.188177570002154,0.3677948630065657,0.3353505529812537,8.55597243300872,,,,,,,,,,,,,7,001,2,2,2018_Oct_02_1108,Dissertation,60.93996657689804,
,,0,,,Verdadero,Falso,f,A,single_left,a,0,0,0,1,f,0,314,a,,,,,,,,,,,,,,,,,,,,,,,,,0,0,0,0,0,7,7,73,,,,,,,,,,,,,,,,,,,,,,,,,,,,,,,,,,,,,,,,,,,,,,,,,,,,,,,,,,,,,,,,,,,f,1,0.38956911000423133,None,0,,,,,None,None,,,,,,,,,,,,,,,,,,,,,,,,,7,001,2,2,2018_Oct_02_1108,Dissertation,60.93996657689804,
,,1,,,Verdadero,Falso,f,B,congruent_right,Después de hacer la tarea Pilar volvió a jugar videojuegos,0,0,0,0,j,0,241,A Pilar le gustan los videojuegos.,,,,,,,,,,,,,,,,,,,,,,,,,0,0,0,0,0,8,8,40,,,,,,,,,,,,,,,,,,0.44849679700564593,0.4348434119601734,0.44849679700564593,0.5198209380032495,0.48974545300006866,0.9683177350088954,0.4338634409941733,0.40416843903949484,1.4021811760030687,0.5016611640457995,0.4720787220285274,1.9038423400488682,0.4009756269515492,0.37166865001199767,2.3048179670004174,0.6018223200226203,0.5726649480056949,2.9066402870230377,0.8024422149755992,0.7738234730204567,3.709082501998637,0.8178542680107057,0.7889560200273991,4.526936770009343,0.40217630204278976,0.37207604199647903,4.929113072052132,0.4840878499671817,0.45566715201130137,5.413200922019314,,,,,,,,,,,,,,,,,,,,j,1,0.6898343799985014,f,1,1.2915728199877776,,,,None,None,,,,,,,,,,,,,,,,,,,,,,,,,7,001,2,2,2018_Oct_02_1108,Dissertation,60.93996657689804,
,,1,,,Verdadero,Falso,f,B,congruent_right,En el salón de conciertos resonaba la música de la banda ,0,0,0,0,j,0,249,Se podía escuchar la música en todo el salón.,,,,,,,,,,,,,,,,,,,,,,,,,0,0,0,0,0,9,9,48,,,,,,,,,,,,,,,,,,0.4834949799696915,0.4679597149952315,0.4834949799696915,0.3336696850019507,0.3046914750011638,0.8171646649716422,0.38422672502929345,0.3556233400013298,1.2013913900009356,0.6696548669715412,0.6381545549957082,1.8710462569724768,0.4341882730368525,0.40705445501953363,2.3052345300093293,1.3035347319673747,1.2751255800249055,3.608769261976704,0.9525908980285749,0.9201253580395132,4.561360160005279,0.38387358497129753,0.35502255003666505,4.945233744976576,0.43395614804467186,0.4042391419643536,5.379189893021248,0.40170078695518896,0.37335699604591355,5.780890679976437,0.31764764501713216,0.28940637200139463,6.098538324993569,,,,,,,,,,,,,,,,,j,1,0.5399614979978651,f,1,3.0295740449801087,,,,None,None,,,,,,,,,,,,,,,,,,,,,,,,,7,001,2,2,2018_Oct_02_1108,Dissertation,60.93996657689804,
,,1,,,Verdadero,Falso,j,B,congruent_right,Cuando mi hermana maneja el carro mi papá camina a la oficina,0,0,0,0,j,0,237,Mi hermana tiene su propio carro.,,,,,,,,,,,,,,,,,,,,,,,,,0,0,0,0,0,10,10,36,,,,,,,,,,,,,,,,,,0.5340273870388046,0.5221878970041871,0.5340273870388046,0.5339527179603465,0.5047211199998856,1.067980104999151,0.9029584850068204,0.8732272970373742,1.9709385900059715,0.5014693000121042,0.47278200002619997,2.4724078900180757,0.6684997599804774,0.63877955195494,3.140907649998553,0.36726297199493274,0.33827006502542645,3.508170621993486,0.38491641805740073,0.3520165979862213,3.8930870400508866,0.40122405998408794,0.37227006000466645,4.2943111000349745,0.534331401984673,0.5055342379491776,4.8286425020196475,0.3677758030244149,0.3388289880240336,5.196418305044062,0.4678397119860165,0.4381541370530613,5.664258017030079,0.3848802479915321,0.35616829502396286,6.049138265021611,,,,,,,,,,,,,,j,1,0.4387803220306523,j,1,2.2596888070111163,,,,None,None,,,,,,,,,,,,,,,,,,,,,,,,,7,001,2,2,2018_Oct_02_1108,Dissertation,60.93996657689804,
,,0,,,Verdadero,Falso,f,A,single_left,a,0,0,0,1,f,0,301,a,,,,,,,,,,,,,,,,,,,,,,,,,0,0,0,0,0,11,11,60,,,,,,,,,,,,,,,,,,,,,,,,,,,,,,,,,,,,,,,,,,,,,,,,,,,,,,,,,,,,,,,,,,,f,1,0.7050693320343271,None,0,,,,,None,None,,,,,,,,,,,,,,,,,,,,,,,,,7,001,2,2,2018_Oct_02_1108,Dissertation,60.93996657689804,
,,0,,,Verdadero,Falso,j,B,incongruent_left,Cuando los jardineros se fueron el jardín era el más bonito del barrio,0,1,1,0,f,0,110,Los clientes no se quedaron satisfechos con el jardín.,,,,,,,,,,,,,,,,,,,,,,,,,0,0,0,0,0,12,12,24,,,,,,,,,,,,,,,,,,0.6341966050094925,0.6108615699922666,0.6341966050094925,0.5176290949457325,0.48914812004659325,1.151825699955225,0.5848696600296535,0.5554627269739285,1.7366953599848785,0.619184642971959,0.5903813579934649,2.3558800029568374,0.4174652670044452,0.3895159999956377,2.7733452699612826,0.4843026050366461,0.45628285501152277,3.2576478749979287,0.4512233479763381,0.42263545002788305,3.708871222974267,1.001859591982793,0.9732055100030266,4.71073081495706,0.552398820000235,0.5233783269650303,5.263129634957295,0.36722686799475923,0.33826586802024394,5.630356502952054,0.418248932051938,0.38520079699810594,6.048605435003992,0.4008984649553895,0.36840777995530516,6.449503899959382,0.3510329280397855,0.31829335499787703,6.800536827999167,,,,,,,,,,,f,1,0.47384863800834864,j,1,2.4607977820560336,,,,None,None,,,,,,,,,,,,,,,,,,,,,,,,,7,001,2,2,2018_Oct_02_1108,Dissertation,60.93996657689804,
,,0,,,Verdadero,Falso,f,B,single_left,La estudiante se encontró con su profesora para calmar su preocupación ,0,0,0,1,f,0,260,La profesora estaba muy preocupada.,,,,,,,,,,,,,,,,,,,,,,,,,0,0,0,0,0,13,13,59,,,,,,,,,,,,,,,,,,0.567201497964561,0.552965561975725,0.567201497964561,0.28421165200416,0.2565291050123051,0.851413149968721,0.45067308499710634,0.42190629296237603,1.3020862349658273,0.5510386700043455,0.5213737249723636,1.8531249049701728,0.7864220180199482,0.7564108400256373,2.639546922990121,0.4835996219771914,0.4549966150079854,3.1231465449673124,0.40212899004109204,0.36814694496570155,3.5252755350084044,0.551219018001575,0.5219457920175046,4.076494553009979,0.46798589697573334,0.43964274204336107,4.544480449985713,0.5013328249915503,0.4722280250280164,5.045813274977263,0.5515628849971108,0.5250522579881363,5.597376159974374,,,,,,,,,,,,,,,,,f,1,0.7063573700143024,j,0,2.540848895034287,,,,None,None,,,,,,,,,,,,,,,,,,,,,,,,,7,001,2,2,2018_Oct_02_1108,Dissertation,60.93996657689804,
,,0,,,Verdadero,Falso,f,B,incongruent_right,Daniel metió el abrigo que su pareja dejó en la maleta en el clóset cuando regresaron,1,1,1,0,j,1,33,La pareja llevó un abrigo en su equipaje.,,,,,,,,,,,,,,,,,,,,,,,,,0,0,0,0,0,14,14,12,,,,,,,,,,,,,,,,,,0.4000701999757439,0.38162701099645346,0.4000701999757439,0.5173951530014165,0.48692808201303706,0.9174653529771604,0.5685032300534658,0.5374861249583773,1.4859685830306262,0.468537236971315,0.42342219897545874,1.9545058200019412,0.5516875230241567,0.5232893750071526,2.506193343026098,0.5343612549477257,0.5058826919994317,3.0405545979738235,0.4175971770309843,0.3843525949632749,3.458151775004808,0.4850870380178094,0.45601869700476527,3.9432388130226173,0.5839012250071391,0.555746658006683,4.527140038029756,0.6021957069751807,0.5683902120217681,5.129335745004937,0.38422639499185607,0.3554837050032802,5.513562139996793,0.6689842279884033,0.6398372929543257,6.182546367985196,0.3341131650377065,0.30477760499343276,6.516659533022903,,,,0.35094280197517946,0.3220635849866085,6.867602334998082,,,,,j,1,0.6232575649628416,f,1,3.1642486570053734,,,,None,None,0.5174740899819881,0.4850349230109714,7.38507642498007,0.4681239600176923,0.43885801697615534,7.853200384997763,,,,,,,,,,,,,,,,,,,7,001,2,2,2018_Oct_02_1108,Dissertation,60.93996657689804,
,,1,,,Verdadero,Falso,j,B,congruent_left,Los chicos pusieron el pollo que su mamá preparó en el horno en la mesa antes de comer,1,1,0,0,f,0,39,La mamá preparó la comida en la mesa.,,,,,,,,,,,,,,,,,,,,,,,,,0,0,0,0,0,15,15,18,,,,,,,,,,,,,,,,,,0.5171177600277588,0.5024018690455705,0.5171177600277588,0.31799202697584406,0.2880244900006801,0.8351097870036028,0.40111029002582654,0.3722543449839577,1.2362200770294294,0.4851039450149983,0.45185976498760283,1.7213240220444277,0.36746818997198716,0.3386317750555463,2.088792212016415,0.4175229300162755,0.38809919002233073,2.5063151420326903,0.36803707998478785,0.33587516500847414,2.874352222017478,0.8187574330368079,0.7898673549643718,3.693109655054286,0.4006332499557175,0.37216045503737405,4.093742905010004,0.4183977520442568,0.3891238050418906,4.51214065705426,0.4006281699985266,0.37178013497032225,4.912768827052787,0.3678754699649289,0.33897094696294516,5.280644297017716,0.40161752502899617,0.3732075580046512,5.682261822046712,,,,0.3837465950055048,0.355783884995617,6.066008417052217,,,,,f,1,0.4509690779959783,j,1,3.4314059379976243,,,,None,None,0.3666721349582076,0.33303936303127557,6.432680552010424,0.41851233498891816,0.3846616549999453,6.851192886999343,0.5519842280191369,0.5227815299876966,7.4031771150184795,0.60103701998014,0.5559922649990767,8.00421413499862,,,,,,,,,,,,,7,001,2,2,2018_Oct_02_1108,Dissertation,60.93996657689804,
,,0,,,Verdadero,Falso,f,B,single_left,La estudiante lista adivinó la respuesta correcta primero,0,0,0,1,f,0,248,La estudiante fue la primera en responder. ,,,,,,,,,,,,,,,,,,,,,,,,,0,0,0,0,0,16,16,47,,,,,,,,,,,,,,,,,,0.6176636720192619,0.6062051259796135,0.6176636720192619,0.3515246629831381,0.3229141650372185,0.9691883350024,0.4838634399930015,0.45114485500380397,1.4530517749954015,0.45018872700165957,0.42155280499719083,1.903240501997061,1.018685543036554,0.9869353299727663,2.921926045033615,0.4681338479858823,0.4373500660294667,3.3900598930194974,0.46930916397832334,0.4399005539598875,3.8593690569978207,0.44992601400008425,0.4202437700005248,4.309295070997905,,,,,,,,,,,,,,,,,,,,,,,,,,f,1,0.6563478499883786,f,1,2.206694084976334,,,,None,None,,,,,,,,,,,,,,,,,,,,,,,,,7,001,2,2,2018_Oct_02_1108,Dissertation,60.93996657689804,
,,0,,,Verdadero,Falso,j,B,incongruent_right,Toni dejó los zapatos que compró en su cuarto cuando volvió,0,1,1,0,j,0,111,Toni solo compró pantalones.,,,,,,,,,,,,,,,,,,,,,,,,,0,0,0,0,0,17,17,25,,,,,,,,,,,,,,,,,,0.9347368199960329,0.922503613983281,0.9347368199960329,0.6517749719787389,0.6234437270322815,1.5865117919747718,0.5340294730267487,0.5011872019967996,2.1205412650015205,0.4516380669665523,0.4215969499782659,2.572179331968073,0.7353295430075377,0.7025468950159848,3.3075088749756105,0.5675526850391179,0.5386034719995223,3.8750615600147285,0.7184598699677736,0.6849242609459907,4.593521429982502,0.8701674549956806,0.8376436599646695,5.463688884978183,0.9852547150221653,0.956615614995826,6.448943600000348,0.5009569270187058,0.47100480197696015,6.949900527019054,0.46914541797013953,0.439870907983277,7.419045944989193,,,,,,,,,,,,,,,,,j,1,0.7741329569835216,j,1,2.071351376012899,,,,None,None,,,,,,,,,,,,,,,,,,,,,,,,,7,001,2,2,2018_Oct_02_1108,Dissertation,60.93996657689804,
,,1,,,Verdadero,Falso,j,B,congruent_left,Después de pintar su casa Julieta tuvo que limpiar,0,0,0,0,f,0,243,Las paredes de la casa están descoloridas. ,,,,,,,,,,,,,,,,,,,,,,,,,0,0,0,0,0,18,18,42,,,,,,,,,,,,,,,,,,0.5836279450450093,0.5724784000194632,0.5836279450450093,0.5021855449886061,0.4689967849990353,1.0858134900336154,0.3500844149966724,0.3215982820256613,1.4358979050302878,0.4512886820011772,0.41800662502646446,1.887186587031465,0.417788285005372,0.38866420998238027,2.304974872036837,0.41819511796347797,0.3899401600356214,2.723169990000315,0.4672597449971363,0.44074165099300444,3.1904297349974513,0.7019640570506454,0.6728007200290449,3.8923937920480967,0.3513654599664733,0.3233845619834028,4.24375925201457,,,,,,,,,,,,,,,,,,,,,,,f,1,0.5230057130102068,j,1,5.886237470025662,,,,None,None,,,,,,,,,,,,,,,,,,,,,,,,,7,001,2,2,2018_Oct_02_1108,Dissertation,60.93996657689804,
,,1,,,Verdadero,Falso,j,B,congruent_left,La cantante colocó el micrófono que usó en el escenario en su lugar después del concierto,1,1,0,0,f,0,31,La cantante no usó un micrófono durante el show.,,,,,,,,,,,,,,,,,,,,,,,,,0,0,0,0,0,19,19,10,,,,,,,,,,,,,,,,,,0.36650193197419867,0.35018831997876987,0.36650193197419867,0.40035131498007104,0.3716096329735592,0.7668532469542697,0.9535889580147341,0.9235714270034805,1.7204422049690038,0.8010439720237628,0.7690807799808681,2.5214861769927666,0.5021287350100465,0.47255921701435,3.023614912002813,0.685530092974659,0.6567159199621528,3.709145004977472,0.5512797320261598,0.5224990829592571,4.260424737003632,0.6853411249467172,0.6569025649805553,4.945765861950349,0.36658795503899455,0.32114626496331766,5.312353816989344,0.36849735298892483,0.33851031499216333,5.6808511699782684,0.8192793269990943,0.7899856729782186,6.500130496977363,0.33381240302696824,0.3062746970099397,6.833942900004331,0.3011505299946293,0.2687934850109741,7.13509342999896,,,,0.4340964499861002,0.4053136549773626,7.5691898799850605,,,,,f,1,0.4564678479800932,j,1,2.845885697985068,,,,None,None,0.534250675002113,0.5053682330180891,8.103440554987174,0.35131174500565976,0.32172392500797287,8.454752299992833,,,,,,,,,,,,,,,,,,,7,001,2,2,2018_Oct_02_1108,Dissertation,60.93996657689804,
,,0,,,Verdadero,Falso,j,B,single_left,Cuando era niño mi papá quería ser arquitecto,0,0,0,1,f,0,244,Mi papá quería ser mecánico cuando era menor.,,,,,,,,,,,,,,,,,,,,,,,,,0,0,0,0,0,20,20,43,,,,,,,,,,,,,,,,,,0.35020243999315426,0.3369117380352691,0.35020243999315426,0.4338731300085783,0.40139548503793776,0.7840755700017326,0.40162418998079374,0.36832199001219124,1.1856997599825263,0.5172049020184204,0.48382925597252324,1.7029046620009467,0.4844249499728903,0.47094989800825715,2.187329611973837,0.41770206403452903,0.38734005199512467,2.605031676008366,0.41768763901200145,0.3879755120142363,3.0227193150203675,0.41861934500047937,0.38803528499556705,3.441338660020847,,,,,,,,,,,,,,,,,,,,,,,,,,f,1,0.505990617966745,j,1,1.9099104279885069,,,,None,None,,,,,,,,,,,,,,,,,,,,,,,,,7,001,2,2,2018_Oct_02_1108,Dissertation,60.93996657689804,
,,0,,,Verdadero,Falso,j,B,incongruent_right,Mientras el padre rezaba la biblia antigua se le cayó al piso,0,1,1,0,j,0,107,El padre no es muy religioso.,,,,,,,,,,,,,,,,,,,,,,,,,0,0,0,0,0,21,21,23,,,,,,,,,,,,,,,,,,0.5336291250423528,0.5219034540350549,0.5336291250423528,0.6351428679772653,0.606402879988309,1.168771993019618,0.384119542024564,0.35521697701187804,1.552891535044182,0.6524500629748218,0.6233345149667002,2.205341598019004,0.8008748880238272,0.771287570009008,3.006216486042831,0.3186636189930141,0.28862410999136046,3.324880105035845,0.6011972879641689,0.5730108970310539,3.926077393000014,0.702219597005751,0.6735718899872154,4.628296990005765,0.5177703580120578,0.4906000340124592,5.146067348017823,0.38463524502003565,0.35174203698989004,5.530702593037859,0.5179546699509956,0.4899882050231099,6.048657262988854,0.5010273070074618,0.4724842289579101,6.549684569996316,,,,,,,,,,,,,,j,1,0.7372278120019473,j,1,1.9268428549985401,,,,None,None,,,,,,,,,,,,,,,,,,,,,,,,,7,001,2,2,2018_Oct_02_1108,Dissertation,60.93996657689804,
,,0,,,Verdadero,Falso,j,B,incongruent_right,El grupo musical que tocó en el salón de conciertos era muy bueno,0,0,1,0,j,0,233,El grupo no tocaba bien.,,,,,,,,,,,,,,,,,,,,,,,,,0,0,0,0,0,22,22,32,,,,,,,,,,,,,,,,,,0.48386596504133195,0.46844709204742685,0.48386596504133195,0.2341877999715507,0.20557125302730128,0.7180537650128826,0.4178372170426883,0.38956431800033897,1.135890982055571,0.36762015795102343,0.3386617270298302,1.5035111400065944,0.4165583880385384,0.3862778509501368,1.9200695280451328,0.5527564389631152,0.519793069048319,2.472825967008248,0.31743963004555553,0.2887680979911238,2.7902655970538035,0.384638677991461,0.3574683940387331,3.1749042750452645,0.41731622198130935,0.3894346000161022,3.592220497026574,0.3341123400023207,0.3056526000145823,3.9263328370288946,0.4677516979863867,0.4391742749721743,4.394084535015281,0.43529064202448353,0.40726883203024045,4.829375177039765,0.416955369990319,0.3885844099568203,5.246330547030084,,,,,,,,,,,j,1,0.7287074080086313,j,1,1.0744885700405575,,,,None,None,,,,,,,,,,,,,,,,,,,,,,,,,7,001,2,2,2018_Oct_02_1108,Dissertation,60.93996657689804,
,,0,,,Verdadero,Falso,j,B,single_right,El chico guapo está bien solo ,0,0,0,1,j,0,258,El chico está contento sin novia.,,,,,,,,,,,,,,,,,,,,,,,,,0,0,0,0,0,23,23,57,,,,,,,,,,,,,,,,,,0.6174784630420618,0.609550504013896,0.6174784630420618,0.40007879195036367,0.37164591799955815,1.0175572549924254,0.35162389499600977,0.3219350549625233,1.3691811499884352,0.3509595729992725,0.32182043499778956,1.7201407229877077,0.40185160702094436,0.36932815494947135,2.121992330008652,0.3839303430286236,0.355404622037895,2.5059226730372757,,,,,,,,,,,,,,,,,,,,,,,,,,,,,,,,j,1,0.435616354981903,f,0,3.2463083359762095,,,,None,None,,,,,,,,,,,,,,,,,,,,,,,,,7,001,2,2,2018_Oct_02_1108,Dissertation,60.93996657689804,
,,1,,,Verdadero,Falso,j,B,congruent_right,La obra de teatro se presentó en el salón de conciertos,0,0,0,0,j,0,253,Los actores presentaron en un anfiteatro.,,,,,,,,,,,,,,,,,,,,,,,,,0,0,0,0,0,24,24,52,,,,,,,,,,,,,,,,,,0.5186768349958584,0.5053075949545018,0.5186768349958584,0.316934050002601,0.28837456804467365,0.8356108849984594,0.41800932196201757,0.38915044703753665,1.253620206960477,0.43494543799897656,0.405768274969887,1.6885656449594535,0.7181567969964817,0.6895324629731476,2.406722441955935,0.40046300302492455,0.3720757950213738,2.8071854449808598,0.5189284919761121,0.48972298798616976,3.326113936956972,0.40052247303538024,0.3716765199787915,3.726636409992352,0.40038670698413625,0.3711604549898766,4.127023116976488,0.4353634649887681,0.4062918819836341,4.5623865819652565,0.35079103003954515,0.3213824469712563,4.913177612004802,,,,,,,,,,,,,,,,,j,1,0.607052567997016,f,0,4.182455422007479,,,,None,None,,,,,,,,,,,,,,,,,,,,,,,,,7,001,2,2,2018_Oct_02_1108,Dissertation,60.93996657689804,
,,0,,,Verdadero,Falso,f,A,incongruent_right,a,0,0,1,0,j,0,315,a,,,,,,,,,,,,,,,,,,,,,,,,,0,0,0,0,0,25,25,74,,,,,,,,,,,,,,,,,,,,,,,,,,,,,,,,,,,,,,,,,,,,,,,,,,,,,,,,,,,,,,,,,,,j,1,0.5396145720151253,None,0,,,,,None,None,,,,,,,,,,,,,,,,,,,,,,,,,7,001,2,2,2018_Oct_02_1108,Dissertation,60.93996657689804,
,,0,,,Verdadero,Falso,j,B,incongruent_left,Antes de comer el pastel los niños cantaron "Cumpleaños Feliz",0,0,1,0,f,0,239,El pastel era para el final del curso.,,,,,,,,,,,,,,,,,,,,,,,,,0,0,0,0,0,26,26,38,,,,,,,,,,,,,,,,,,0.49994690000312403,0.4879085359862074,0.49994690000312403,0.48447633802425116,0.4553334469674155,0.9844232380273752,0.3849311670055613,0.35580132994800806,1.3693544050329365,0.484784453001339,0.45197653298964724,1.8541388580342755,0.43466892500873655,0.40593760198680684,2.288807783043012,0.45127928198780864,0.4189444999792613,2.7400870650308207,0.3509115729830228,0.3223173079895787,3.0909986380138434,0.3335056970245205,0.3059588779578917,3.424504335038364,0.41826705797575414,0.37269008200382814,3.842771393014118,0.6016262699849904,0.5696030399994925,4.444397662999108,,,,,,,,,,,,,,,,,,,,f,1,0.4907410840387456,j,1,2.2430579470237717,,,,None,None,,,,,,,,,,,,,,,,,,,,,,,,,7,001,2,2,2018_Oct_02_1108,Dissertation,60.93996657689804,
,,0,,,Verdadero,Falso,f,B,incongruent_left,La empleada guardó los documentos que recibió en el buzón en una carpeta después de revisarlos,1,1,1,0,f,1,32,La empleada revisó los documentos.,,,,,,,,,,,,,,,,,,,,,,,,,0,0,0,0,0,27,27,11,,,,,,,,,,,,,,,,,,0.3339801779948175,0.3180021030129865,0.3339801779948175,0.3332463370170444,0.28728255501482636,0.6672265150118619,0.6025481830001809,0.5688167779590003,1.2697746980120428,0.3172227869508788,0.2844928650301881,1.5869974849629216,0.5178021750180051,0.4849576000124216,2.1047996599809267,0.45174341002712026,0.4180220550042577,2.556543070008047,0.3995501159806736,0.3665499130147509,2.9560931859887205,0.5028967619873583,0.47216279502026737,3.458989947976079,0.3672072049812414,0.3382762179826386,3.82619715295732,0.3674915350275114,0.3384888920118101,4.193688687984832,0.5187440100125968,0.49034243501955643,4.7124326979974285,0.40145356697030365,0.3735870700329542,5.113886264967732,0.41632285801460966,0.38795476499944925,5.530209122982342,,,,0.6028094050125219,0.5732807120075449,6.133018527994864,,,,,f,1,0.4575623269774951,f,1,1.7100313020055182,,,,None,None,0.6014116519945674,0.5694193079834804,6.734430179989431,0.7019323179847561,0.6730505850282498,7.436362497974187,,,,,,,,,,,,,,,,,,,7,001,2,2,2018_Oct_02_1108,Dissertation,60.93996657689804,
,,1,,,Verdadero,Falso,j,B,congruent_left,Los novios tomaron vino durante la fiesta,0,0,0,0,f,0,247,Los novios sólo toman cerveza.,,,,,,,,,,,,,,,,,,,,,,,,,0,0,0,0,0,28,28,46,,,,,,,,,,,,,,,,,,0.4674679919844493,0.4537896649562754,0.4674679919844493,0.28397296799812466,0.2551162380259484,0.751440959982574,0.4678841999848373,0.4383228849619627,1.2193251599674113,0.4838732550269924,0.45148762298049405,1.7031984149944037,0.3340337320114486,0.3043363450560719,2.0372321470058523,0.5694141849526204,0.5362083380459808,2.6066463319584727,0.45095906499773264,0.4227101349970326,3.0576053969562054,,,,,,,,,,,,,,,,,,,,,,,,,,,,,f,1,0.6063197199837305,j,1,1.7244391949498095,,,,None,None,,,,,,,,,,,,,,,,,,,,,,,,,7,001,2,2,2018_Oct_02_1108,Dissertation,60.93996657689804,
,,0,,,Verdadero,Falso,j,B,incongruent_right,La cajera insertó el billete que el cliente le dejó en la caja pero no tenía cambio,0,1,1,0,j,0,119,La caja tenía muchos billetes pequeños.,,,,,,,,,,,,,,,,,,,,,,,,,0,0,0,0,0,29,29,29,,,,,,,,,,,,,,,,,,0.9185315349604934,0.8900319100357592,0.9185315349604934,0.4675874329986982,0.4392767149838619,1.3861189679591917,0.3677849300438538,0.33881997503340244,1.7539038980030455,0.7689953969675116,0.7408406500471756,2.522899294970557,0.5846184730180539,0.5556488150032237,3.107517767988611,0.8688184149796143,0.8395030599785969,3.9763361829682253,0.4010470820358023,0.3722343599656597,4.377383265004028,0.5182046699919738,0.4893475950229913,4.895587934996001,0.6515707049984485,0.6229799020220526,5.54715863999445,0.5016338849673048,0.47180140303680673,6.048792524961755,0.6349772100220434,0.6062315779854544,6.683769734983798,0.551160164992325,0.5219792679999955,7.234929899976123,0.6349671949865296,0.6061852169805206,7.869897094962653,,,,0.41713514301227406,0.38760766497580335,8.287032237974927,,,,,j,1,0.48440563498297706,j,1,2.8962144979741424,,,,None,None,0.3350477200001478,0.30544476298382506,8.622079957975075,0.36792288697324693,0.33938156499061733,8.990002844948322,0.5181145850219764,0.4891878379858099,9.508117429970298,,,,,,,,,,,,,,,,7,001,2,2,2018_Oct_02_1108,Dissertation,60.93996657689804,
,,1,,,Verdadero,Falso,f,A,congruent_left,a,0,0,0,0,f,0,307,a,,,,,,,,,,,,,,,,,,,,,,,,,0,0,0,0,0,30,30,66,,,,,,,,,,,,,,,,,,,,,,,,,,,,,,,,,,,,,,,,,,,,,,,,,,,,,,,,,,,,,,,,,,,f,1,0.40546933497535065,None,0,,,,,None,None,,,,,,,,,,,,,,,,,,,,,,,,,7,001,2,2,2018_Oct_02_1108,Dissertation,60.93996657689804,
,,0,,,Verdadero,Falso,f,A,single_right,a,0,0,0,1,j,0,302,a,,,,,,,,,,,,,,,,,,,,,,,,,0,0,0,0,0,31,31,61,,,,,,,,,,,,,,,,,,,,,,,,,,,,,,,,,,,,,,,,,,,,,,,,,,,,,,,,,,,,,,,,,,,j,1,0.7372957990155555,None,0,,,,,None,None,,,,,,,,,,,,,,,,,,,,,,,,,7,001,2,2,2018_Oct_02_1108,Dissertation,60.93996657689804,
,,0,,,Verdadero,Falso,f,B,incongruent_right,Sandra acomodó las novelas que Antonia dejó en el librero cuando las encontró,0,1,1,0,j,0,115,Sandra limpió el lío de libros de Antonia.,,,,,,,,,,,,,,,,,,,,,,,,,0,0,0,0,0,32,32,27,,,,,,,,,,,,,,,,,,0.4663854149985127,0.44852231501135975,0.4663854149985127,0.4181559930439107,0.38888910302193835,0.8845414080424234,0.8021401320002042,0.7568301419960335,1.6866815400426276,0.6848423949559219,0.6558123580180109,2.3715239349985495,0.4503594349953346,0.4217900549992919,2.821883369993884,0.635767797997687,0.6029157180455513,3.457651167991571,0.6521503670373932,0.6225587319931947,4.109801535028964,0.38379104796331376,0.354736064968165,4.493592582992278,0.385141717037186,0.3386819129809737,4.878734300029464,0.35067970800446346,0.32174490502802655,5.2294140080339275,0.48420436499873176,0.45558334997622296,5.713618373032659,0.4180583269917406,0.3904567899880931,6.1316767000244,0.3675793479778804,0.3380465470254421,6.49925604800228,,,,,,,,,,,j,1,0.52533171500545,f,1,4.549574439995922,,,,None,None,,,,,,,,,,,,,,,,,,,,,,,,,7,001,2,2,2018_Oct_02_1108,Dissertation,60.93996657689804,
,,0,,,Verdadero,Falso,f,B,single_left,"En la oficina había dos empleados, un periodista y un fotógrafo ",0,0,0,1,f,0,256,Había cuatro personas en la oficina.,,,,,,,,,,,,,,,,,,,,,,,,,0,0,0,0,0,33,33,55,,,,,,,,,,,,,,,,,,0.45007999998051673,0.43322552600875497,0.45007999998051673,0.3174509999807924,0.2882353470195085,0.7675309999613091,0.317539518000558,0.28488660795846954,1.0850705179618672,0.46818576502846554,0.43882228998700157,1.5532562829903327,0.4336721649742685,0.38617242604959756,1.9869284479646012,0.43516900204122066,0.4062029899796471,2.422097450005822,0.5679254999849945,0.5390485799871385,2.9900229499908164,0.450817824981641,0.4221384249976836,3.4408407749724574,0.7858840679982677,0.7561304169939831,4.226724842970725,0.3846951919840649,0.35157071700086817,4.61142003495479,0.33447591500589624,0.30579071497777477,4.945895949960686,,,,,,,,,,,,,,,,,f,1,0.4067774649593048,j,0,1.9435537450481206,,,,None,None,,,,,,,,,,,,,,,,,,,,,,,,,7,001,2,2,2018_Oct_02_1108,Dissertation,60.93996657689804,
,,0,,,Verdadero,Falso,f,B,incongruent_right,Después de que corrí el maratón no me parecía tan imposible,1,1,1,0,j,1,21,Me sentí mejor corriendo el maratón que anticipaba.,,,,,,,,,,,,,,,,,,,,,,,,,0,0,0,0,0,34,34,0,,,,,,,,,,,,,,,,,,0.4836672979872674,0.4772946939920075,0.4836672979872674,0.40117369196377695,0.37175740697421134,0.8848409899510443,0.3502852230449207,0.3212241519941017,1.235126212995965,0.3518967799609527,0.32192703196778893,1.5870229929569177,0.5348423600080423,0.5015161499613896,2.12186535296496,0.35021964699262753,0.32147034304216504,2.4720849999575876,0.651918645016849,0.6226940379710868,3.1240036449744366,0.3842517629964277,0.35106918698875234,3.5082554079708643,0.35106995998648927,0.3213185799540952,3.8593253679573536,0.7025466320337728,0.6734288650332019,4.561871999991126,0.5013688229955733,0.47268907201942056,5.0632408229867,,,,,,,,,,,,,,,,,j,1,0.7558059399598278,f,1,2.8578118999721482,,,,None,None,,,,,,,,,,,,,,,,,,,,,,,,,7,001,2,2,2018_Oct_02_1108,Dissertation,60.93996657689804,
,,0,,,Verdadero,Falso,f,A,single_left,a,0,0,0,1,f,0,305,a,,,,,,,,,,,,,,,,,,,,,,,,,0,0,0,0,0,35,35,64,,,,,,,,,,,,,,,,,,,,,,,,,,,,,,,,,,,,,,,,,,,,,,,,,,,,,,,,,,,,,,,,,,,f,1,0.4176577900070697,None,0,,,,,None,None,,,,,,,,,,,,,,,,,,,,,,,,,7,001,2,2,2018_Oct_02_1108,Dissertation,60.93996657689804,
,,0,,,Verdadero,Falso,f,B,incongruent_left,Las chicas acomodaron la ropa que sus padres les dejaron en su cuarto dentro del clóset antes de dormir,1,1,1,0,f,1,36,Los padres doblaron la ropa para sus hijas.,,,,,,,,,,,,,,,,,,,,,,,,,0,0,0,0,0,36,36,15,,,,,,,,,,,,,,,,,,0.5669367249938659,0.5481627919944003,0.5669367249938659,0.317338929977268,0.28683204599656165,0.8842756549711339,0.40064978803275153,0.36786661500809714,1.2849254430038854,0.38485549995675683,0.35857732698787004,1.6697809429606423,0.4339460110059008,0.3878815430216491,2.103726953966543,0.4179555610171519,0.3859064650023356,2.521682514983695,0.3511004479951225,0.32364696002332494,2.8727829629788175,0.3509096470079385,0.3015482049668208,3.223692609986756,0.5680156400194392,0.5390605630236678,3.791708250006195,0.4012855699984357,0.37178141198819503,4.192993820004631,0.7015086499741301,0.6729072249727324,4.894502469978761,0.46750462299678475,0.4393982770270668,5.362007092975546,0.3184824000345543,0.2884957719943486,5.6804894930101,,,,0.4510868669603951,0.40514767804415897,6.131576359970495,,,,,f,1,0.6392455549794249,f,1,4.298797986994032,,,,None,None,0.3839940750040114,0.3554293849738315,6.5155704349745065,0.43385736003983766,0.3879196100169793,6.949427795014344,0.4519212329760194,0.421912916994188,7.4013490279903635,0.4682270149933174,0.4220981420367025,7.869576042983681,0.3332863069954328,0.2882609269581735,8.202862349979114,,,,,,,,,,7,001,2,2,2018_Oct_02_1108,Dissertation,60.93996657689804,
,,0,,,Verdadero,Falso,f,B,incongruent_right,El padre metió las copas sucias que su hija dejó en la mesa en el lavaplatos cuando acabó de comer,1,1,1,0,j,1,37,El padre limpió la mesa después de la comida.,,,,,,,,,,,,,,,,,,,,,,,,,0,0,0,0,0,37,37,16,,,,,,,,,,,,,,,,,,0.5989175599534065,0.5810735109844245,0.5989175599534065,0.3527700250269845,0.3201288579730317,0.951687584980391,0.35046031000092626,0.3222351950244047,1.3021478949813172,0.4348129199934192,0.4056477720150724,1.7369608149747364,0.4848777099978179,0.45615748199634254,2.2218385249725543,0.5510319169843569,0.5237465829704888,2.7728704419569112,0.5687601750250906,0.5364873100188561,3.341630616982002,0.43339211301645264,0.40513866499532014,3.7750227299984545,0.4020367749617435,0.37235357699682936,4.177059504960198,0.45106898504309356,0.42206614499446005,4.6281284900032915,0.3669988219626248,0.3376914000255056,4.995127311965916,0.46701622602995485,0.4368279190384783,5.462143537995871,0.336092731973622,0.30567001504823565,5.798236269969493,,,,0.48420777200954035,0.45146172697423026,6.2824440419790335,,,,,j,1,0.5559155720402487,f,1,3.5113508129725233,,,,None,space,0.30041705002076924,0.27181796298827976,6.582861091999803,0.36806304997298867,0.33480306196724996,6.950924141972791,1.0195136180263944,0.9911505299969576,7.970437759999186,0.48419386497698724,0.4557468199636787,8.454631624976173,0.4343141670105979,0.4044861730071716,8.888945791986771,0.35170545300934464,0.3225663530174643,9.240651244996116,13.795448205026332,,,,,,7,001,2,2,2018_Oct_02_1108,Dissertation,60.93996657689804,
,,0,,,Verdadero,Falso,j,B,single_right,Subí la escalera para irme a dormir,0,0,0,1,j,0,250,Mi cuarto de dormir está en la planta baja.,,,,,,,,,,,,,,,,,,,,,,,,,0,0,0,0,0,38,38,49,,,,,,,,,,,,,,,,,,0.5172501679626293,0.4975216800230555,0.5172501679626293,0.4016850719926879,0.37245140701998025,0.9189352399553172,0.33396043500397354,0.30558222701074556,1.2528956749592908,0.6183946030214429,0.5888203130452894,1.8712902779807337,0.40112666197819635,0.3681860300130211,2.27241693995893,0.6517646830179729,0.6183798169950023,2.924181622976903,0.4170536900055595,0.3877269229851663,3.3412353129824623,,,,,,,,,,,,,,,,,,,,,,,,,,,,,j,1,0.5224736419622786,j,1,2.3614691349794157,,,,None,None,,,,,,,,,,,,,,,,,,,,,,,,,7,001,2,2,2018_Oct_02_1108,Dissertation,60.93996657689804,
,,0,,,Verdadero,Falso,f,B,single_right,Cuando los amigos tienen una fiesta todos toman vino o cerveza,0,0,0,1,j,0,242,Mis amigos no toman whisky en las fiestas.,,,,,,,,,,,,,,,,,,,,,,,,,0,0,0,0,0,39,39,41,,,,,,,,,,,,,,,,,,0.5169523120275699,0.49837977899005637,0.5169523120275699,0.2999416049569845,0.2709562070085667,0.8168939169845544,0.41849588800687343,0.38859697501175106,1.2353898049914278,0.43478733202209696,0.40569545998005196,1.6701771370135248,0.6012371400138363,0.5681569700245745,2.271414277027361,0.40142950997687876,0.36899690300924703,2.67284378700424,0.45117735501844436,0.4221859020181,3.124021142022684,0.6852921950048767,0.6518583969445899,3.809313337027561,0.43448036001063883,0.4059325179550797,4.2437936970382,0.38388206996023655,0.3560139019973576,4.627675766998436,0.501270070031751,0.4688529339618981,5.128945837030187,,,,,,,,,,,,,,,,,j,1,0.6393868000013754,f,1,4.012105318019167,,,,None,None,,,,,,,,,,,,,,,,,,,,,,,,,7,001,2,2,2018_Oct_02_1108,Dissertation,60.93996657689804,
,,1,,,Verdadero,Falso,j,B,congruent_right,Cuando Dora compró la comida se le quedó en el mercado,1,1,0,0,j,0,30,Dora salió del mercado con la comida.,,,,,,,,,,,,,,,,,,,,,,,,,0,0,0,0,0,40,40,9,,,,,,,,,,,,,,,,,,0.5495654480182566,0.5401900880387984,0.5495654480182566,0.33510691998526454,0.3051817669766024,0.8846723680035211,0.3340840499731712,0.3050232999958098,1.2187564179766923,0.4682506750104949,0.4391385480412282,1.6870070929871872,0.5506350570358336,0.5217240329948254,2.237642150023021,0.4182223199750297,0.38430374796735123,2.6558644699980505,0.3178559700027108,0.28501918498659506,2.9737204400007613,0.4179853930254467,0.3895563650294207,3.391705833026208,0.40019510698039085,0.371302645013202,3.791900940006599,0.4336666209856048,0.4031335070030764,4.225567560992204,0.41788851498859003,0.3862229730002582,4.643456075980794,,,,,,,,,,,,,,,,,j,1,0.5548526229686104,j,1,4.182655406999402,,,,None,None,,,,,,,,,,,,,,,,,,,,,,,,,7,001,2,2,2018_Oct_02_1108,Dissertation,60.93996657689804,
,,0,,,Verdadero,Falso,f,A,incongruent_left,a,0,0,1,0,f,0,313,a,,,,,,,,,,,,,,,,,,,,,,,,,0,0,0,0,0,41,41,72,,,,,,,,,,,,,,,,,,,,,,,,,,,,,,,,,,,,,,,,,,,,,,,,,,,,,,,,,,,,,,,,,,,f,1,0.6917125569889322,None,0,,,,,None,None,,,,,,,,,,,,,,,,,,,,,,,,,7,001,2,2,2018_Oct_02_1108,Dissertation,60.93996657689804,
,,0,,,Verdadero,Falso,f,B,incongruent_right,El chico toca el violín raro,0,0,1,0,j,0,257,El chico no sabe tocar bien.,,,,,,,,,,,,,,,,,,,,,,,,,0,0,0,0,0,42,42,56,,,,,,,,,,,,,,,,,,0.7176764570176601,0.7103910610312596,0.7176764570176601,0.33262855402426794,0.30229535000398755,1.050305011041928,0.3179334669839591,0.30106872599571943,1.3682384780258872,0.3005856249947101,0.28705501201329753,1.6688241030205972,0.3690533390035853,0.33938962599495426,2.0378774420241825,0.4345671350019984,0.40607237204676494,2.472444577026181,,,,,,,,,,,,,,,,,,,,,,,,,,,,,,,,j,1,0.5730497980257496,f,1,3.781552976986859,,,,None,None,,,,,,,,,,,,,,,,,,,,,,,,,7,001,2,2,2018_Oct_02_1108,Dissertation,60.93996657689804,
,,0,,,Verdadero,Falso,f,B,single_right,La casa de Enrique le quedó muy limpia antes de su fiesta,0,0,0,1,j,0,246,Enrique limpió la casa antes de recibir a los invitados.,,,,,,,,,,,,,,,,,,,,,,,,,0,0,0,0,0,43,43,45,,,,,,,,,,,,,,,,,,0.5011964300065301,0.4854187020100653,0.5011964300065301,0.3677747799665667,0.3388753669569269,0.8689712099730968,0.3841659580357373,0.35527448501670733,1.2531371680088341,0.31747978198109195,0.2896670129848644,1.570616949989926,0.40050518000498414,0.3719804199645296,1.9711221299949102,0.35096373001579195,0.3214030870003626,2.322085860010702,0.3676319029764272,0.33948573196539655,2.6897177629871294,0.38518057198962197,0.3521261300193146,3.0748983349767514,0.3674069850239903,0.33831737702712417,3.4423053200007416,0.4012023250106722,0.3687066800193861,3.843507645011414,0.3503470699652098,0.3214268470183015,4.193854714976624,0.36796053498983383,0.3384175999672152,4.5618152499664575,,,,,,,,,,,,,,j,1,0.3897622920339927,f,1,5.369518525025342,,,,None,None,,,,,,,,,,,,,,,,,,,,,,,,,7,001,2,2,2018_Oct_02_1108,Dissertation,60.93996657689804,
,,0,,,Verdadero,Falso,f,A,single_right,a,0,0,0,1,j,0,306,a,,,,,,,,,,,,,,,,,,,,,,,,,0,0,0,0,0,44,44,65,,,,,,,,,,,,,,,,,,,,,,,,,,,,,,,,,,,,,,,,,,,,,,,,,,,,,,,,,,,,,,,,,,,j,1,0.5053404430509545,None,0,,,,,None,None,,,,,,,,,,,,,,,,,,,,,,,,,7,001,2,2,2018_Oct_02_1108,Dissertation,60.93996657689804,
,,1,,,Verdadero,Falso,j,B,congruent_left,Cuando la artista pintó el cuadro cayó de la pared,1,1,0,0,f,0,27,El cuadro está colgado firmemente.,,,,,,,,,,,,,,,,,,,,,,,,,0,0,0,0,0,45,45,6,,,,,,,,,,,,,,,,,,0.4664148779702373,0.45409290003590286,0.4664148779702373,0.38557745004072785,0.35670307697728276,0.8519923280109651,0.3334469549590722,0.3036408079788089,1.1854392829700373,0.6507823480060324,0.6203036730294116,1.8362216309760697,0.5861686239950359,0.5560560129815713,2.4223902549711056,0.36779803002718836,0.3390335700241849,2.790188284998294,0.39956418302608654,0.36933313799090683,3.1897524680243805,0.5689198199543171,0.5397443930269219,3.7586722879786976,0.3835263280197978,0.3541670880513266,4.142198615998495,0.3689434819971211,0.3397301899967715,4.5111420979956165,,,,,,,,,,,,,,,,,,,,f,1,0.45611515996279195,j,1,2.278054235037416,,,,None,None,,,,,,,,,,,,,,,,,,,,,,,,,7,001,2,2,2018_Oct_02_1108,Dissertation,60.93996657689804,
,,1,,,Verdadero,Falso,f,A,congruent_right,a,0,0,0,0,j,0,304,a,,,,,,,,,,,,,,,,,,,,,,,,,0,0,0,0,0,46,46,63,,,,,,,,,,,,,,,,,,,,,,,,,,,,,,,,,,,,,,,,,,,,,,,,,,,,,,,,,,,,,,,,,,,j,1,0.45582602301146835,None,0,,,,,None,None,,,,,,,,,,,,,,,,,,,,,,,,,7,001,2,2,2018_Oct_02_1108,Dissertation,60.93996657689804,
,,0,,,Verdadero,Falso,j,B,incongruent_left,Después de que salieron la casa se quedó muy limpia,0,1,1,0,f,0,102,Todavía deben limpiar la casa.,,,,,,,,,,,,,,,,,,,,,,,,,0,0,0,0,0,47,47,20,,,,,,,,,,,,,,,,,,0.45052087999647483,0.4400299369590357,0.45052087999647483,0.4176591550349258,0.3853186030173674,0.8681800350314006,0.33426959498319775,0.302273650013376,1.2024496300145984,0.3499793490045704,0.3215682810405269,1.5524289790191688,0.6355080369976349,0.5891400529653765,2.1879370160168037,0.45165160699980333,0.4197785339783877,2.639588623016607,0.7688495200127363,0.7364082579733804,3.4084381430293433,0.31760964496061206,0.28858396998839453,3.7260477879899554,0.5847945850109681,0.5561764169833623,4.3108423730009235,0.3843726600171067,0.35205513203982264,4.69521503301803,,,,,,,,,,,,,,,,,,,,f,1,0.3731329949805513,j,1,2.2934293120051734,,,,None,None,,,,,,,,,,,,,,,,,,,,,,,,,7,001,2,2,2018_Oct_02_1108,Dissertation,60.93996657689804,
,,0,,,Verdadero,Falso,j,B,incongruent_left,Los estudiantes metieron la tarea que la maestra les dio en la clase en sus bolsas antes de irse,1,1,1,0,f,1,40,La maestra se quedó con la tarea de los alumnos.,,,,,,,,,,,,,,,,,,,,,,,,,0,0,0,0,0,48,48,19,,,,,,,,,,,,,,,,,,0.49997747800080106,0.48342084599426016,0.49997747800080106,0.3673229299602099,0.33925422601168975,0.8673004079610109,0.38413919700542465,0.3544653870048933,1.2514396049664356,0.5353946150280535,0.5029414520249702,1.786834219994489,0.501423200010322,0.45619354699738324,2.288257420004811,0.41731540800537914,0.36817302397685125,2.7055728280101903,0.43439691595267504,0.40366632799850777,3.1399697439628653,0.4513064890052192,0.41881903499597684,3.5912762329680845,0.36678630200913176,0.32135856698732823,3.9580625349772163,0.4695050499867648,0.43883765098871663,4.427567584963981,0.4333910020068288,0.4044098099693656,4.86095858697081,0.30158878304064274,0.2566356910392642,5.162547370011453,0.3160009039565921,0.28636159998131916,5.478548273968045,,,,0.5188113760086708,0.4723690249957144,5.9973596499767154,,,,,f,1,0.5893138870014809,j,1,3.280067175044678,,,,None,None,0.33328927803086117,0.2873099119751714,6.330648928007577,0.3019589969771914,0.27282283001113683,6.632607924984768,0.284846814989578,0.2579566650092602,6.917454739974346,0.3496759030385874,0.3052113489829935,7.267130643012933,0.2853453299612738,0.2395092549850233,7.552475972974207,,,,,,,,,,7,001,2,2,2018_Oct_02_1108,Dissertation,60.93996657689804,
,,0,,,Verdadero,Falso,f,B,single_left,Mi celular se me rompió cuando se me cayó al piso,0,0,0,1,f,0,252,Mi celular ya está roto.,,,,,,,,,,,,,,,,,,,,,,,,,0,0,0,0,0,49,49,51,,,,,,,,,,,,,,,,,,0.482842936005909,0.4714065340231173,0.482842936005909,0.3356617559911683,0.30303003202425316,0.8185046919970773,0.4345259050023742,0.40641152299940586,1.2530305969994515,0.4169587430078536,0.3889930220320821,1.6699893400073051,0.350911547022406,0.3211461550090462,2.020900887029711,0.45195987296756357,0.4184057250386104,2.4728607599972747,0.6517953120055608,0.6191391799948178,3.1246560720028356,0.350242979999166,0.3218680249992758,3.4748990520020016,0.4002584529807791,0.36907159799011424,3.8751575049827807,0.5696350350044668,0.5435082379844971,4.444792539987247,0.3342547800275497,0.30457855499116704,4.779047320014797,,,,,,,,,,,,,,,,,f,1,0.7899056670139544,j,0,2.0054659379529767,,,,None,None,,,,,,,,,,,,,,,,,,,,,,,,,7,001,2,2,2018_Oct_02_1108,Dissertation,60.93996657689804,
,,1,,,Verdadero,Falso,f,A,congruent_right,a,0,0,0,0,j,0,312,a,,,,,,,,,,,,,,,,,,,,,,,,,0,0,0,0,0,50,50,71,,,,,,,,,,,,,,,,,,,,,,,,,,,,,,,,,,,,,,,,,,,,,,,,,,,,,,,,,,,,,,,,,,,j,1,0.6055297949933447,None,0,,,,,None,None,,,,,,,,,,,,,,,,,,,,,,,,,7,001,2,2,2018_Oct_02_1108,Dissertation,60.93996657689804,
,,0,,,Verdadero,Falso,f,B,single_left,Los pasteles en la cocina de los Menéndez son para la fiesta de cumpleaños,0,0,0,1,f,0,232,Los Menéndez van a una fiesta.,,,,,,,,,,,,,,,,,,,,,,,,,0,0,0,0,0,51,51,31,,,,,,,,,,,,,,,,,,0.7671670949785039,0.7515321369864978,0.7671670949785039,0.41867686301702634,0.38541823701234534,1.1858439579955302,0.5507211619988084,0.5228515549679287,1.7365651199943386,0.41805365798063576,0.38915616797748953,2.1546187779749744,0.300818337011151,0.271370945032686,2.4554371149861254,0.3841990599757992,0.35172822704771534,2.8396361749619246,0.26711987802991644,0.2344491800176911,3.106756052991841,0.4515463470015675,0.42411356000229716,3.5583023999934085,0.3173159849829972,0.28817281796364114,3.8756183849764057,0.3670061500160955,0.32157241296954453,4.242624534992501,0.7695968929911032,0.7403964480035938,5.012221427983604,0.2836298099718988,0.2543572729919106,5.295851237955503,0.28461208200315014,0.2552642079535872,5.580463319958653,,,,0.31764542299788445,0.28886174503713846,5.898108742956538,,,,,f,1,0.439362847013399,j,0,4.935449999989942,,,,None,None,,,,,,,,,,,,,,,,,,,,,,,,,7,001,2,2,2018_Oct_02_1108,Dissertation,60.93996657689804,
,,0,,,Verdadero,Falso,j,B,single_left,Siempre que da un concierto la artista canta sus canciones más conocidas,0,0,0,1,f,0,240,La artista siempre canta sus canciones recien salidas.,,,,,,,,,,,,,,,,,,,,,,,,,0,0,0,0,0,52,52,39,,,,,,,,,,,,,,,,,,0.46709418995305896,0.4509733419981785,0.46709418995305896,0.38327398302499205,0.3537646430195309,0.850368172978051,0.3179153819801286,0.2884761850000359,1.1682835549581796,0.28442980302497745,0.2550992550095543,1.452713357983157,0.3175439949845895,0.28989932499825954,1.7702573529677466,0.46819186699576676,0.4395783600048162,2.2384492199635133,0.4009354200097732,0.3720804229960777,2.6393846399732865,0.7172252499731258,0.6844432490179315,3.3566098899464123,0.35105423000641167,0.3225128789781593,3.707664119952824,0.3185920750256628,0.2895361029659398,4.026256194978487,0.35024732496822253,0.32273795997025445,4.376503519946709,0.3679433450452052,0.33393122296547517,4.7444468649919145,,,,,,,,,,,,,,f,1,0.4201858710148372,j,1,7.224189456959721,,,,None,None,,,,,,,,,,,,,,,,,,,,,,,,,7,001,2,2,2018_Oct_02_1108,Dissertation,60.93996657689804,
,,0,,,Verdadero,Falso,f,B,incongruent_left,Los planos del arquitecto tienen un diseño muy creativo ,0,0,1,0,f,0,251,El arquitecto es muy bueno y creativo.,,,,,,,,,,,,,,,,,,,,,,,,,0,0,0,0,0,53,53,50,,,,,,,,,,,,,,,,,,0.5838742580381222,0.5679608790087514,0.5838742580381222,0.35092594497837126,0.3212493150494993,0.9348002030164935,0.3170858999947086,0.28847433702321723,1.251886103011202,0.40199875697726384,0.37262897699838504,1.653884859988466,0.33309468801598996,0.30357786297099665,1.9869795480044559,0.3851274020271376,0.3549597369856201,2.3721069500315934,0.41758404299616814,0.3855222399579361,2.7896909930277616,0.31713786197360605,0.28826041298452765,3.1068288550013676,0.4016365580027923,0.37225687701720744,3.50846541300416,,,,,,,,,,,,,,,,,,,,,,,f,1,0.5392093200352974,f,1,1.8058186220005155,,,,None,None,,,,,,,,,,,,,,,,,,,,,,,,,7,001,2,2,2018_Oct_02_1108,Dissertation,60.93996657689804,
,,1,,,Verdadero,Falso,j,B,congruent_right,Mientras el novio pagaba el diamante se le cayó al piso,1,1,0,0,j,0,26,La esposa dejó caer el diamante al piso.,,,,,,,,,,,,,,,,,,,,,,,,,0,0,0,0,0,54,54,5,,,,,,,,,,,,,,,,,,0.46878609800478444,0.46287965396186337,0.46878609800478444,0.46804080496076494,0.4399985800264403,0.9368269029655494,0.36729955702321604,0.3388234779704362,1.3041264599887654,0.40038864500820637,0.3684113100171089,1.7045151049969718,0.3684076350182295,0.3390812879661098,2.0729227400152013,0.5347782899625599,0.5061948330258019,2.607701029977761,1.067834395042155,1.0374454600387253,3.675535425019916,0.4526842599734664,0.4225696070352569,4.1282196849933825,0.3343230729806237,0.3049293929943815,4.462542757974006,0.35095742502016947,0.3225229969830252,4.813500182994176,0.4172841549734585,0.3842267469735816,5.230784337967634,,,,,,,,,,,,,,,,,j,1,0.47219975298503414,j,1,2.443704230012372,,,,None,None,,,,,,,,,,,,,,,,,,,,,,,,,7,001,2,2,2018_Oct_02_1108,Dissertation,60.93996657689804,
,,0,,,Verdadero,Falso,f,B,incongruent_right,Antes de servir la comida el mesero rellenó las copas,0,0,1,0,j,0,245,El mesero era muy atento con los clientes.,,,,,,,,,,,,,,,,,,,,,,,,,0,0,0,0,0,55,55,44,,,,,,,,,,,,,,,,,,0.8674529550480656,0.8584069470525719,0.8674529550480656,0.401496636972297,0.3719079020083882,1.2689495920203626,0.316917777992785,0.28825274703558534,1.5858673700131476,0.36811674502678216,0.33441530994605273,1.9539841150399297,0.4014177150093019,0.3726405799970962,2.3554018300492316,0.41786511498503387,0.3886334869894199,2.7732669450342655,0.3337710119667463,0.30429094698047265,3.107037957001012,0.40066504303831607,0.370951300021261,3.507703000039328,0.803510395984631,0.7724652260076255,4.311213396023959,0.46734369901241735,0.4384126750519499,4.778557095036376,,,,,,,,,,,,,,,,,,,,j,1,0.6407174440100789,f,1,2.4448113319813274,,,,None,None,,,,,,,,,,,,,,,,,,,,,,,,,7,001,2,2,2018_Oct_02_1108,Dissertation,60.93996657689804,
,,0,,,Verdadero,Falso,f,A,single_right,a,0,0,0,1,j,0,310,a,,,,,,,,,,,,,,,,,,,,,,,,,0,0,0,0,0,56,56,69,,,,,,,,,,,,,,,,,,,,,,,,,,,,,,,,,,,,,,,,,,,,,,,,,,,,,,,,,,,,,,,,,,,j,1,0.43502177298069,None,0,,,,,None,None,,,,,,,,,,,,,,,,,,,,,,,,,7,001,2,2,2018_Oct_02_1108,Dissertation,60.93996657689804,
,,0,,,Verdadero,Falso,f,B,incongruent_left,Mi papá guardó la pintura que hizo en su despacho de trabajo,0,1,1,0,f,0,114,Mi papá se quedó orgulloso de su pintura.,,,,,,,,,,,,,,,,,,,,,,,,,0,0,0,0,0,57,57,26,,,,,,,,,,,,,,,,,,0.4837906350148842,0.4717605150071904,0.4837906350148842,0.38488199800485745,0.3550612950348295,0.8686726330197416,0.45077665499411523,0.42201061302330345,1.3194492880138569,0.4338623419753276,0.40549565199762583,1.7533116299891844,0.3847223750199191,0.3520623929798603,2.1380340050091036,0.5507096860092133,0.522793483978603,2.688743691018317,0.31856744398828596,0.2898288569995202,3.007311135006603,0.40113586297957227,0.3722478900454007,3.408446997986175,0.5336353399907239,0.5050901079666801,3.942082337976899,0.3689190000295639,0.3354914719820954,4.311001338006463,0.6337924620020203,0.6054664929979481,4.944793800008483,0.33494948997395113,0.3049578770296648,5.279743289982434,,,,,,,,,,,,,,f,1,0.4552881200215779,f,1,2.9272097069770098,,,,None,None,,,,,,,,,,,,,,,,,,,,,,,,,7,001,2,2,2018_Oct_02_1108,Dissertation,60.93996657689804,
,,0,,,Verdadero,Falso,f,B,incongruent_right,Cuando el escultor terminó la obra tenía tres metros  de altura,1,1,1,0,j,1,29,La estatua era muy alta.,,,,,,,,,,,,,,,,,,,,,,,,,0,0,0,0,0,58,58,8,,,,,,,,,,,,,,,,,,0.5659641979727894,0.5524129900150001,0.5659641979727894,0.4189581270329654,0.3888878900324926,0.9849223250057548,0.2845567049807869,0.25509529799455777,1.2694790299865417,0.8684152450296097,0.8356677399715409,2.1378942750161514,0.6014589199912734,0.5730051400023513,2.739353195007425,0.3509664579760283,0.322226446995046,3.090319652983453,0.48469637997914106,0.4553875250276178,3.575016032962594,1.3538964750478044,1.3241930300137028,4.928912508010399,0.46770114195533097,0.43811507301870733,5.39661364996573,0.4682415450224653,0.43982150696683675,5.864855194988195,1.1031153100193478,1.0751490620314144,6.967970505007543,,,,,,,,,,,,,,,,,j,1,0.5878339000046253,f,1,1.2540054630371742,,,,None,None,,,,,,,,,,,,,,,,,,,,,,,,,7,001,2,2,2018_Oct_02_1108,Dissertation,60.93996657689804,
,,1,,,Verdadero,Falso,j,B,congruent_right,Las artistas colocaron el cuadro que su colega dejó en la pared en la oficina privada antes de su exhibición,1,1,0,0,j,0,38,La galería de arte estaba vacía cuando las artistas llegaron.,,,,,,,,,,,,,,,,,,,,,,,,,0,0,0,0,0,59,59,17,,,,,,,,,,,,,,,,,,0.5010395400458947,0.4804035039851442,0.5010395400458947,0.3343133499729447,0.3054850280168466,0.8353528900188394,0.3328572019818239,0.3033893830142915,1.1682100920006633,0.4516054250416346,0.4050918100401759,1.6198155170422979,0.5187148979748599,0.4848602329730056,2.138530415017158,0.38431133702397346,0.33907124504912645,2.5228417520411313,0.4678065449697897,0.4386289999820292,2.990648297010921,0.351239568029996,0.3225066279992461,3.341887865040917,0.4005289999768138,0.35537716798717156,3.7424168650177307,0.5354103849967942,0.48483044997556135,4.277827250014525,0.36746298003708944,0.3217666700365953,4.645290230051614,0.2835737219429575,0.2535242429585196,4.928863951994572,0.5857921550050378,0.5521213929750957,5.51465610699961,,,,0.3163457030314021,0.2878279580036178,5.831001810031012,,,,,j,1,0.5396491420106031,j,1,4.816887512046378,,,,None,None,0.3348973569809459,0.3056438150233589,6.165899167011958,0.30077280901605263,0.2715865109930746,6.46667197602801,0.3509072859887965,0.32126545504434034,6.817579262016807,0.35095276799984276,0.3215175900259055,7.1685320300166495,0.3009362299926579,0.27228373498655856,7.469468260009307,0.31771243002731353,0.2889782949932851,7.787180690036621,,,,,,,7,001,2,2,2018_Oct_02_1108,Dissertation,60.93996657689804,
,,0,,,Verdadero,Falso,f,B,single_right,Los meseros preparan las verduras en la cocina antes de servirlas,0,0,0,1,j,0,234,Los meseros lavan las verduras.,,,,,,,,,,,,,,,,,,,,,,,,,0,0,0,0,0,60,60,33,,,,,,,,,,,,,,,,,,0.4990269059780985,0.4864703589701094,0.4990269059780985,0.41813637100858614,0.3899979960406199,0.9171632769866847,0.4008844660129398,0.3706628839718178,1.3180477429996245,0.45194116700440645,0.4048828760278411,1.769988910004031,0.35112025699345395,0.32391607301542535,2.121109166997485,0.46715323301032186,0.4351416819845326,2.5882624000078067,0.43519568501506,0.40480569802457467,3.0234580850228667,0.33437253499869257,0.30638105497928336,3.3578306200215593,0.2677686719689518,0.2398141140001826,3.625599291990511,0.367107109981589,0.33853220200398937,3.9927064019721,0.3674129650462419,0.3377358799916692,4.360119367018342,,,,,,,,,,,,,,,,,j,1,0.42239432997303084,f,1,3.8149376629735343,,,,None,None,,,,,,,,,,,,,,,,,,,,,,,,,7,001,2,2,2018_Oct_02_1108,Dissertation,60.93996657689804,
,,0,,,Verdadero,Falso,j,B,incongruent_right,Mientras el maestro tocaba el violín resonaba por todo el salón,1,1,1,0,j,1,25,El maestro tocaba el piano.,,,,,,,,,,,,,,,,,,,,,,,,,0,0,0,0,0,61,61,4,,,,,,,,,,,,,,,,,,0.484737690014299,0.4683854149770923,0.484737690014299,0.4333175600040704,0.40299990301718935,0.9180552500183694,0.3684761750046164,0.3387306770309806,1.2865314250229858,0.30056691000936553,0.2710656499839388,1.5870983350323513,0.5018591270199977,0.4686412329901941,2.088957462052349,0.36775367497466505,0.3350252800155431,2.456711137027014,0.4165416909963824,0.3843242130242288,2.8732528280233964,0.7193787320284173,0.6908708510454744,3.5926315600518137,0.3503535169875249,0.32228491798741743,3.9429850770393386,0.4182690500165336,0.38801781297661364,4.361254127055872,0.3343138299533166,0.3055040800245479,4.695567957009189,,,,,,,,,,,,,,,,,j,1,0.6054115750011988,j,1,1.6260149300214835,,,,None,None,,,,,,,,,,,,,,,,,,,,,,,,,7,001,2,2,2018_Oct_02_1108,Dissertation,60.93996657689804,
,,0,,,Verdadero,Falso,f,B,single_right,Mi tarjeta de crédito se me quedó en casa,0,0,0,1,j,0,254,Tuve que usar efectivo para pagar.,,,,,,,,,,,,,,,,,,,,,,,,,0,0,0,0,0,62,62,53,,,,,,,,,,,,,,,,,,0.8517695550108328,0.8418900980032049,0.8517695550108328,0.4002396449795924,0.3701948740053922,1.2520091999904253,0.3681147050228901,0.3345622799824923,1.6201239050133154,0.4670490400167182,0.43810696696164086,2.0871729450300336,0.45191632298519835,0.42320967197883874,2.539089268015232,0.35126275196671486,0.3062911419547163,2.890352019981947,0.4004410630441271,0.3715857829665765,3.290793083026074,0.30070594197604805,0.2711637349566445,3.591499025002122,0.3682206399971619,0.33891012700041756,3.959719664999284,,,,,,,,,,,,,,,,,,,,,,,j,1,0.4351533430162817,f,1,1.8569525280036032,,,,None,None,,,,,,,,,,,,,,,,,,,,,,,,,7,001,2,2,2018_Oct_02_1108,Dissertation,60.93996657689804,
,,0,,,Verdadero,Falso,f,B,incongruent_left,Antes de que celebraran esa canción no era muy popular ,0,1,1,0,f,0,106,Nadie sabía la canción antes.,,,,,,,,,,,,,,,,,,,,,,,,,0,0,0,0,0,63,63,22,,,,,,,,,,,,,,,,,,0.5183218899765052,0.5120338319684379,0.5183218899765052,0.38415729999542236,0.35499566700309515,0.9024791899719276,0.2845231880201027,0.2546614049933851,1.1870023779920302,0.2841458619805053,0.2554124880116433,1.4711482399725355,0.26721312501467764,0.23817172000417486,1.7383613649872132,0.651775318023283,0.6220449949614704,2.390136683010496,1.1200803599786013,1.0910680750384927,3.5102170429890975,0.534717217029538,0.5023314080317505,4.0449342600186355,0.4010498629650101,0.3725412530475296,4.445984122983646,0.3339808550081216,0.3057678070035763,4.779964977991767,,,,,,,,,,,,,,,,,,,,f,1,0.6207803329452872,f,1,2.310414193023462,,,,None,None,,,,,,,,,,,,,,,,,,,,,,,,,7,001,2,2,2018_Oct_02_1108,Dissertation,60.93996657689804,
,,0,,,Verdadero,Falso,j,B,single_left,Linda hace un paseo en las montañas todos los sábados,0,0,0,1,f,0,236,A Linda no le gusta la naturaleza.,,,,,,,,,,,,,,,,,,,,,,,,,0,0,0,0,0,64,64,35,,,,,,,,,,,,,,,,,,0.49888136103982106,0.48288983502425253,0.49888136103982106,0.35032743599731475,0.3209254349931143,0.8492087970371358,0.3172994899796322,0.2870801870012656,1.166508287016768,0.467881684016902,0.4344415710074827,1.63438997103367,0.40147594595327973,0.387965455010999,2.0358659169869497,0.38415847602300346,0.35303059802390635,2.420024393009953,0.25113100901944563,0.22185513703152537,2.671155402029399,0.41770974796963856,0.3893689750111662,3.0888651499990374,0.33451460202923045,0.2886454180115834,3.423379752028268,0.31728940497851,0.288708409992978,3.740669157006778,,,,,,,,,,,,,,,,,,,,f,1,0.6396795050241053,j,1,1.4540670069982298,,,,None,None,,,,,,,,,,,,,,,,,,,,,,,,,7,001,2,2,2018_Oct_02_1108,Dissertation,60.93996657689804,
,,1,,,Verdadero,Falso,f,A,congruent_right,a,0,0,0,0,j,0,308,a,,,,,,,,,,,,,,,,,,,,,,,,,0,0,0,0,0,65,65,67,,,,,,,,,,,,,,,,,,,,,,,,,,,,,,,,,,,,,,,,,,,,,,,,,,,,,,,,,,,,,,,,,,,j,1,0.5388161400333047,None,0,,,,,None,None,,,,,,,,,,,,,,,,,,,,,,,,,7,001,2,2,2018_Oct_02_1108,Dissertation,60.93996657689804,
,,1,,,Verdadero,Falso,j,B,congruent_left,Justo cuando aparcaron el carro viejo volvió a fallar,1,1,0,0,f,0,23,El carro está en una condición perfecta.,,,,,,,,,,,,,,,,,,,,,,,,,0,0,0,0,0,66,66,2,,,,,,,,,,,,,,,,,,0.4834753479808569,0.47253794001881033,0.4834753479808569,0.45122877502581105,0.42194926500087604,0.9347041230066679,0.367650970001705,0.33872475795214996,1.302355093008373,0.6515407469705679,0.622289217018988,1.9538958399789408,0.4852174530387856,0.45160038996255025,2.4391132930177264,0.6851713350042701,0.65615296701435,3.1242846280219965,0.45059726195177063,0.41762385301990435,3.574881889973767,0.48524122504750267,0.45640452700899914,4.06012311502127,0.3509575429488905,0.3226413400261663,4.41108065797016,,,,,,,,,,,,,,,,,,,,,,,f,1,0.3901192249613814,j,1,1.9091362120234407,,,,None,None,,,,,,,,,,,,,,,,,,,,,,,,,7,001,2,2,2018_Oct_02_1108,Dissertation,60.93996657689804,
,,0,,,Verdadero,Falso,f,B,incongruent_left,Este año cuando gritaron el grito sonó hasta por las montañas,1,1,1,0,f,1,24,Se escuchó el grito desde lejos.,,,,,,,,,,,,,,,,,,,,,,,,,0,0,0,0,0,67,67,3,,,,,,,,,,,,,,,,,,0.5999524459475651,0.5859581709955819,0.5999524459475651,0.38478529901476577,0.35568061302183196,0.9847377449623309,0.46790416998555884,0.4390646700048819,1.4526419149478897,0.350755300023593,0.32167609001044184,1.8033972149714828,0.33283145300811157,0.3014864269644022,2.1362286679795943,0.5032793469727039,0.4689332449925132,2.6395080149522983,0.7017034000018612,0.6691686969716102,3.3412114149541594,0.3510636099963449,0.3184628179878928,3.6922750249505043,0.4344795870129019,0.40535942499991506,4.126754611963406,0.35118440503720194,0.3223130549886264,4.477939017000608,0.3837681579752825,0.35147019202122465,4.861707174975891,,,,,,,,,,,,,,,,,f,1,0.4388156419736333,f,1,2.979439774993807,,,,None,None,,,,,,,,,,,,,,,,,,,,,,,,,7,001,2,2,2018_Oct_02_1108,Dissertation,60.93996657689804,
,,0,,,Verdadero,Falso,f,B,single_right,Después de preparar el desayuno Pedro limpia bien la cocina,0,0,0,1,j,0,238,Pedro no deja la cocina sucia.,,,,,,,,,,,,,,,,,,,,,,,,,0,0,0,0,0,68,68,37,,,,,,,,,,,,,,,,,,0.4491348229930736,0.4366666610003449,0.4491348229930736,0.40255723998416215,0.3739831799757667,0.8516920629772358,0.333844967011828,0.3056063969852403,1.1855370299890637,0.3339676299947314,0.30477590998634696,1.5195046599837951,0.8022920450312085,0.7725165099836886,2.3217967050150037,0.41853017796529457,0.3887949800118804,2.7403268829802983,0.7507266349857673,0.7229297820013016,3.4910535179660656,0.36717362503986806,0.3359124500420876,3.8582271430059336,0.9032549620023929,0.872650466975756,4.7614821050083265,0.6019623329630122,0.572691900015343,5.363444437971339,,,,,,,,,,,,,,,,,,,,j,1,0.4725677819806151,f,1,4.565362638037186,,,,None,None,,,,,,,,,,,,,,,,,,,,,,,,,7,001,2,2,2018_Oct_02_1108,Dissertation,60.93996657689804,
,,1,,,Verdadero,Falso,f,A,congruent_left,a,0,0,0,0,f,0,303,a,,,,,,,,,,,,,,,,,,,,,,,,,0,0,0,0,0,69,69,62,,,,,,,,,,,,,,,,,,,,,,,,,,,,,,,,,,,,,,,,,,,,,,,,,,,,,,,,,,,,,,,,,,,f,1,0.4889734699972905,None,0,,,,,None,None,,,,,,,,,,,,,,,,,,,,,,,,,7,001,2,2,2018_Oct_02_1108,Dissertation,60.93996657689804,
,,1,,,Verdadero,Falso,j,B,congruent_left,La arquitecta guardó los planos en su bolsa,0,0,0,0,f,0,231,Los planos están en el archivero.,,,,,,,,,,,,,,,,,,,,,,,,,0,0,0,0,0,70,70,30,,,,,,,,,,,,,,,,,,0.4496642929734662,0.43874826101819053,0.4496642929734662,0.3339494970277883,0.30492900195531547,0.7836137900012545,0.6016849179868586,0.5722980530117638,1.3852987079881132,0.38480914500541985,0.3545751929632388,1.770107852993533,0.3341919669765048,0.3052087730029598,2.104299819970038,0.568630125024356,0.5395505049964413,2.6729299449943937,0.2676253679674119,0.23944571299944073,2.9405553129618056,0.30041875201277435,0.27237980504287407,3.24097406497458,,,,,,,,,,,,,,,,,,,,,,,,,,f,1,0.40192145301261917,j,1,2.812443465052638,,,,None,None,,,,,,,,,,,,,,,,,,,,,,,,,7,001,2,2,2018_Oct_02_1108,Dissertation,60.93996657689804,
,,1,,,Verdadero,Falso,j,B,congruent_right,Después de que la arquitecta empezó los planos se volvieron más sencillos,1,1,0,0,j,0,22,Los planos siempre fueron muy sencillos.,,,,,,,,,,,,,,,,,,,,,,,,,0,0,0,0,0,71,71,1,,,,,,,,,,,,,,,,,,0.667682315048296,0.6545838000020012,0.667682315048296,0.4512747749686241,0.4193938469979912,1.1189570900169201,0.3674522429937497,0.33922734699444845,1.4864093330106698,0.31748925999272615,0.28869070997461677,1.803898593003396,0.3009229950257577,0.2683962169685401,2.1048215880291536,0.28372043499257416,0.25505082798190415,2.388542023021728,0.8684342870255932,0.8226268599973992,3.256976310047321,0.33495262294309214,0.3020339299691841,3.591928932990413,0.41785782005172223,0.38946450501680374,4.009786753042135,0.35106992698274553,0.3222098069963977,4.360856680024881,0.3339774379855953,0.3056048849830404,4.694834118010476,0.43478351703379303,0.4055349549744278,5.129617635044269,,,,,,,,,,,,,,j,1,0.5422767350100912,j,1,1.5250658279983327,,,,None,None,,,,,,,,,,,,,,,,,,,,,,,,,7,001,2,2,2018_Oct_02_1108,Dissertation,60.93996657689804,
,,0,,,Verdadero,Falso,f,A,single_left,a,0,0,0,1,f,0,309,a,,,,,,,,,,,,,,,,,,,,,,,,,0,0,0,0,0,72,72,68,,,,,,,,,,,,,,,,,,,,,,,,,,,,,,,,,,,,,,,,,,,,,,,,,,,,,,,,,,,,,,,,,,,f,1,0.5372239970020019,None,0,,,,,None,None,,,,,,,,,,,,,,,,,,,,,,,,,7,001,2,2,2018_Oct_02_1108,Dissertation,60.93996657689804,
,,1,,,Verdadero,Falso,f,B,congruent_left,Carlos solo cultiva verduras en el jardín que tiene en casa,0,0,0,0,f,0,235,Carlos no compra muchas verduras en el supermercado.,,,,,,,,,,,,,,,,,,,,,,,,,0,0,0,0,0,73,73,34,,,,,,,,,,,,,,,,,,0.6335380399832502,0.621837674989365,0.6335380399832502,0.4686727049993351,0.44053977902513,1.1022107449825853,0.36682857503183186,0.3387069050222635,1.4690393200144172,0.40100745495874435,0.3715411050361581,1.8700467749731615,0.5186348329880275,0.4847206879639998,2.388681607961189,0.7014985650312155,0.6725633030291647,3.0901801729924046,0.3686309169861488,0.3389860379975289,3.4588110899785534,0.9858760029892437,0.9562814499950036,4.444687092967797,0.39899612101726234,0.36839928495464846,4.843683213985059,0.31879147101426497,0.2888438189984299,5.162474684999324,0.368006587959826,0.3388740869704634,5.53048127295915,,,,,,,,,,,,,,,,,f,1,0.43953803600743413,j,0,2.1918099650065415,,,,None,None,,,,,,,,,,,,,,,,,,,,,,,,,7,001,2,2,2018_Oct_02_1108,Dissertation,60.93996657689804,
,,1,,,Verdadero,Falso,f,A,congruent_left,a,0,0,0,0,f,0,311,a,,,,,,,,,,,,,,,,,,,,,,,,,0,0,0,0,0,74,74,70,,,,,,,,,,,,,,,,,,,,,,,,,,,,,,,,,,,,,,,,,,,,,,,,,,,,,,,,,,,,,,,,,,,f,1,0.7020044929813594,None,0,,,,,None,None,,,,,,,,,,,,,,,,,,,,,,,,,7,001,2,2,2018_Oct_02_1108,Dissertation,60.93996657689804,
,,1,,,Verdadero,Falso,f,A,congruent_left,Los autobuses en Madrid tienen más de quince pies de altura ,0,0,0,0,f,0,225,Los autobuses madrileños son muy altos.,,,,,,,,,,,,,,,,,,,,,,,,,1,0,1,0,0,0,0,54,,,,,,,,,,,,,,,,,,0.6009612900088541,0.5816155120264739,0.6009612900088541,0.3343099749763496,0.305701732984744,0.9352712649852037,0.6012573579791933,0.5744660600321367,1.536528622964397,0.5015697400085628,0.45173781196353957,2.03809836297296,0.5345569120254368,0.5059487849939615,2.5726552749983966,0.4681603030185215,0.4387934900005348,3.040815578016918,0.36777459998847917,0.34009809204144403,3.4085901780053973,0.36751659197034314,0.33864578703651205,3.7761067699757405,0.35090869799023494,0.3215956400381401,4.127015467965975,0.4341421000426635,0.4047105120262131,4.561157568008639,0.43493024999042973,0.40589223499409854,4.996087817999069,,,,,,,,,,,,,,,,,f,1,0.5879124929779209,f,1,3.2759607250336558,,,,None,None,,,,,,,,,,,,,,,,,,,,space,29.38127032801276,,,,7,001,2,2,2018_Oct_02_1108,Dissertation,60.93996657689804,
,,1,,,Verdadero,Falso,f,A,congruent_left,Jimena duerme bien en la cama en su cuarto,0,0,0,0,f,0,205,La cama de Jimena es cómoda.,,,,,,,,,,,,,,,,,,,,,,,,,1,0,1,0,0,1,1,34,,,,,,,,,,,,,,,,,,0.5172643999685533,0.5032245049951598,0.5172643999685533,0.38362212502397597,0.35423686396097764,0.9008865249925293,0.35182784497737885,0.32266022998373955,1.2527143699699081,0.5170816730242223,0.4878636549692601,1.7697960429941304,0.3516125350142829,0.3222983330488205,2.1214085780084133,0.3176652249530889,0.28432259301189333,2.4390738029615022,0.25068548700073734,0.2175433419761248,2.6897592899622396,0.2664034879999235,0.2368506970233284,2.956162777962163,0.3350568769965321,0.3045200600172393,3.291219654958695,,,,,,,,,,,,,,,,,,,,,,,f,1,0.42182961001526564,f,1,2.4941334649920464,,,,None,None,,,,,,,,,,,,,,,,,,,,,,,,,7,001,2,2,2018_Oct_02_1108,Dissertation,60.93996657689804,
,,0,,,Verdadero,Falso,j,A,single_right,Cuando Dora ganó la lotería se compró un reloj de diamantes,0,0,0,1,j,0,216,Dora ahorró todo el dinero que ganó. ,,,,,,,,,,,,,,,,,,,,,,,,,1,0,1,0,0,2,2,45,,,,,,,,,,,,,,,,,,0.5159785649739206,0.5007648409809917,0.5159785649739206,0.335154002008494,0.3051131649990566,0.8511325669824146,0.3013748279772699,0.27268457697937265,1.1525073949596845,0.2997814970440231,0.27137658500578254,1.4522888920037076,0.384147409000434,0.35064449900528416,1.8364363010041416,0.6692828260129318,0.6388727820012718,2.5057191270170733,0.2673602979630232,0.23849098500795662,2.7730794249800965,0.3668860099860467,0.33783852198394015,3.139965434966143,0.3509730350342579,0.3211540149641223,3.490938470000401,0.6357310119783506,0.6020856449613348,4.126669481978752,0.3175939950160682,0.28871141700074077,4.44426347699482,,,,,,,,,,,,,,,,,j,1,0.45298761199228466,j,1,3.8107467780355364,,,,None,None,,,,,,,,,,,,,,,,,,,,,,,,,7,001,2,2,2018_Oct_02_1108,Dissertation,60.93996657689804,
,,1,,,Verdadero,Falso,f,A,congruent_left,Cuando la chica lava los platos se quedan bien sucios,1,1,0,0,f,0,9,La chica lava sin cuidado.,,,,,,,,,,,,,,,,,,,,,,,,,1,0,1,0,0,3,3,8,,,,,,,,,,,,,,,,,,0.4338646700489335,0.42277976201148704,0.4338646700489335,0.4340103819849901,0.4047741600079462,0.8678750520339236,0.3015530799748376,0.26812204997986555,1.1694281320087612,0.3170246200170368,0.2840071400278248,1.486452752025798,0.5837532000150532,0.5544515469809994,2.070205952040851,0.43564266996691003,0.40651207900373265,2.505848622007761,0.3342697930056602,0.3056388379773125,2.8401184150134213,0.266670975019224,0.23773490998428315,3.1067893900326453,0.4181779369828291,0.3843940749648027,3.5249673270154744,0.33302589401137084,0.302121119981166,3.8579932210268453,,,,,,,,,,,,,,,,,,,,f,1,0.4212523669702932,f,1,2.544724844978191,,,,None,None,,,,,,,,,,,,,,,,,,,,,,,,,7,001,2,2,2018_Oct_02_1108,Dissertation,60.93996657689804,
,,0,,,Verdadero,Falso,f,A,single_right,Mi hermana guardó en su celular el número del chico guapo,0,0,0,1,j,0,208,A mi hermana le gustaría salir con el chico.,,,,,,,,,,,,,,,,,,,,,,,,,1,0,1,0,0,4,4,37,,,,,,,,,,,,,,,,,,0.6018030800041743,0.5902590040350333,0.6018030800041743,0.2842662049806677,0.2554175829864107,0.8860692849848419,0.35050218197284266,0.3184178649680689,1.2365714669576846,0.31728279002709314,0.2839242580230348,1.5538542569847777,0.3511699750088155,0.3183483349857852,1.9050242319935933,0.2837868749629706,0.25411616498604417,2.188811106956564,0.30084575002547354,0.27136781497392803,2.4896568569820374,0.31773355999030173,0.2843720919918269,2.807390416972339,0.51788546302123,0.4883986570057459,3.325275879993569,0.2837986199883744,0.25414740201085806,3.6090744999819435,0.3683359749848023,0.3390333750285208,3.977410474966746,,,,,,,,,,,,,,,,,j,1,0.6191709070117213,f,1,3.046610552002676,,,,None,None,,,,,,,,,,,,,,,,,,,,,,,,,7,001,2,2,2018_Oct_02_1108,Dissertation,60.93996657689804,
,,1,,,Verdadero,Falso,f,A,congruent_left,La computadora de Jessica falla con frecuencia,0,0,0,0,f,0,217,Jessica necesita consultar con un técnico.,,,,,,,,,,,,,,,,,,,,,,,,,1,0,1,0,0,5,5,46,,,,,,,,,,,,,,,,,,0.4841388830100186,0.47203662199899554,0.4841388830100186,0.3177084350027144,0.28859350498532876,0.801847318012733,0.701508259982802,0.6722399750142358,1.503355577995535,0.6523264849674888,0.6230950150056742,2.155682062963024,0.3011492670048028,0.2733321650302969,2.4568313299678266,0.48397175304125994,0.45539037499111146,2.9408030830090865,0.8861104419920594,0.8564006229862571,3.826913525001146,,,,,,,,,,,,,,,,,,,,,,,,,,,,,f,1,0.519083276973106,f,1,2.227331200032495,,,,None,None,,,,,,,,,,,,,,,,,,,,,,,,,7,001,2,2,2018_Oct_02_1108,Dissertation,60.93996657689804,
