practiceimage,PracticeimageCorrAns,congruent,practiceSentence,practiceSentenceCompQ,compRespL,compRespR,compRespCorr,block,image,sentence,ambiguous,critical,Incongruent,Single,imageCorrAns,incongruentambiguous,criticalSentenceCode,compQ,RepeatFlankerIfNeeded.thisRepN,RepeatFlankerIfNeeded.thisTrialN,RepeatFlankerIfNeeded.thisN,RepeatFlankerIfNeeded.thisIndex,practiceFlankerLoop.thisRepN,practiceFlankerLoop.thisTrialN,practiceFlankerLoop.thisN,practiceFlankerLoop.thisIndex,RepeatPracticeSentencesIfNeeded.thisRepN,RepeatPracticeSentencesIfNeeded.thisTrialN,RepeatPracticeSentencesIfNeeded.thisN,RepeatPracticeSentencesIfNeeded.thisIndex,practiceSentenceLoop.thisRepN,practiceSentenceLoop.thisTrialN,practiceSentenceLoop.thisN,practiceSentenceLoop.thisIndex,MixedPractice.thisRepN,MixedPractice.thisTrialN,MixedPractice.thisN,MixedPractice.thisIndex,MixedPracticeTrial.thisRepN,MixedPracticeTrial.thisTrialN,MixedPracticeTrial.thisN,MixedPracticeTrial.thisIndex,blocks.thisRepN,blocks.thisTrialN,blocks.thisN,blocks.thisIndex,trials.thisRepN,trials.thisTrialN,trials.thisN,trials.thisIndex,keyResponseIntroText.keys,keyResponseIntroText.rt,keyResponseIntro2Text.keys,keyResponseIntro2Text.rt,FlankerInstructions_keyresponse.keys,FlankerInstructions_keyresponse.rt,FlankerInstructions2_keyresponse.keys,FlankerInstructions2_keyresponse.rt,PracticeFlankerResponse.keys,PracticeFlankerResponse.corr,PracticeFlankerResponse.rt,SPRInstructions_keyresponse.keys,SPRInstructions_keyresponse.rt,key_resp_5.keys,key_resp_5.rt,SPRinstructions2_keyresponse.keys,SPRinstructions2_keyresponse.rt,IRI_0,IRI_FL_0,space_0,IRI_1,IRI_FL_1,space_1,IRI_2,IRI_FL_2,space_2,IRI_3,IRI_FL_3,space_3,IRI_4,IRI_FL_4,space_4,IRI_5,IRI_FL_5,space_5,IRI_6,IRI_FL_6,space_6,IRI_7,IRI_FL_7,space_7,IRI_8,IRI_FL_8,space_8,IRI_9,IRI_FL_9,space_9,IRI_10,IRI_FL_10,space_10,IRI_11,IRI_FL_11,space_11,IRI_12,IRI_FL_12,space_12,key_resp_practiceCompQ.keys,key_resp_practiceCompQ.corr,key_resp_practiceCompQ.rt,IRI_13,IRI_FL_13,space_13,combinedInstructions_keyresponse.keys,combinedInstructions_keyresponse.rt,keyResponseInstructionsMixed.keys,keyResponseInstructionsMixed.rt,flankerkeyresponse.keys,flankerkeyresponse.corr,flankerkeyresponse.rt,CompQkeyresponse.keys,CompQkeyresponse.corr,CompQkeyresponse.rt,key_resp_3.keys,keyResponsePreStart.keys,keyResponsePreStart.rt,IRI_14,IRI_FL_14,space_14,IRI_15,IRI_FL_15,space_15,IRI_16,IRI_FL_16,space_16,IRI_17,IRI_FL_17,space_17,IRI_18,IRI_FL_18,space_18,key_resp_2.keys,key_resp_4.keys,IRI_19,IRI_FL_19,space_19,key_resp_4.rt,IRI_20,IRI_FL_20,space_20,rest_keyresponse.keys,rest_keyresponse.rt,participant,session,group,level,date,expName,frameRate,
,,,,,,,,,,,,,,,,,,,,,,,,,,,,,,,,,,,,,,,,,,,,,,,,,,,space,8.695444290002342,,,,,,,,,,,,,,,,,,,,,,,,,,,,,,,,,,,,,,,,,,,,,,,,,,,,,,,,,,,,,,,,,,,,,,,,,,,,,,,,,,,,,,,,,,,,,,,,,,,,8,001,3,2,2018_Oct_04_1120,Dissertation,59.49359316166042,
,,,,,,,,,,,,,,,,,,,,,,,,,,,,,,,,,,,,,,,,,,,,,,,,,,,,,space,14.598194182035513,,,,,,,,,,,,,,,,,,,,,,,,,,,,,,,,,,,,,,,,,,,,,,,,,,,,,,,,,,,,,,,,,,,,,,,,,,,,,,,,,,,,,,,,,,,,,,,,,,8,001,3,2,2018_Oct_04_1120,Dissertation,59.49359316166042,
,,,,,,,,,,,,,,,,,,,,,,,,,,,,,,,,,,,,,,,,,,,,,,,,,,,,,,,space,13.321515385003295,,,,,,,,,,,,,,,,,,,,,,,,,,,,,,,,,,,,,,,,,,,,,,,,,,,,,,,,,,,,,,,,,,,,,,,,,,,,,,,,,,,,,,,,,,,,,,,,8,001,3,2,2018_Oct_04_1120,Dissertation,59.49359316166042,
congruent_left,f,1,This is an example of the sentences you will see throughout the study,You just saw an example of a stimulus.,Verdadero,Falso,f,practice,,,,,,,,,,,0,0,0,0,0,0,0,0,,,,,,,,,,,,,,,,,,,,,,,,,,,,,,,space,4.38251579599455,f,1,1.4424996149609797,,,,,,,,,,,,,,,,,,,,,,,,,,,,,,,,,,,,,,,,,,,,,,,,,,,,,,,,,,,,,,,,,,,,,,,,,,,,,,,,,,,,,,,,,,,8,001,3,2,2018_Oct_04_1120,Dissertation,59.49359316166042,
incongruent_right,j,0,Your task is to read the sentence in the most natural way possible,You don't have to pay attention to the sentence.,Verdadero,Falso,j,practice,,,,,,,,,,,0,0,0,0,0,1,1,3,,,,,,,,,,,,,,,,,,,,,,,,,,,,,,,,,None,0,,,,,,,,,,,,,,,,,,,,,,,,,,,,,,,,,,,,,,,,,,,,,,,,,,,,,,,,,,,,,,,,,,,,,,,,,,,,,,,,,,,,,,,,,,,,8,001,3,2,2018_Oct_04_1120,Dissertation,59.49359316166042,
single_left,f,0,The questions that follow each sentence sometimes will be obvious and sometimes more difficult ,The difficulty of each sentence varies.,Verdadero,Falso,f,practice,,,,,,,,,,,0,0,0,0,0,2,2,4,,,,,,,,,,,,,,,,,,,,,,,,,,,,,,,,,f,1,0.8703243430354632,,,,,,,,,,,,,,,,,,,,,,,,,,,,,,,,,,,,,,,,,,,,,,,,,,,,,,,,,,,,,,,,,,,,,,,,,,,,,,,,,,,,,,,,,,,8,001,3,2,2018_Oct_04_1120,Dissertation,59.49359316166042,
incongruent_left,f,0,Sometimes they'll be short,All sentences are the same.,Verdadero,Falso,j,practice,,,,,,,,,,,0,0,0,0,0,3,3,2,,,,,,,,,,,,,,,,,,,,,,,,,,,,,,,,,f,1,0.7019178969785571,,,,,,,,,,,,,,,,,,,,,,,,,,,,,,,,,,,,,,,,,,,,,,,,,,,,,,,,,,,,,,,,,,,,,,,,,,,,,,,,,,,,,,,,,,,8,001,3,2,2018_Oct_04_1120,Dissertation,59.49359316166042,
congruent_right,j,1,Sometimes the sentences will be longer,Some sentences are long.,Verdadero,Falso,f,practice,,,,,,,,,,,0,0,0,0,0,4,4,1,,,,,,,,,,,,,,,,,,,,,,,,,,,,,,,,,j,1,0.6225906609906815,,,,,,,,,,,,,,,,,,,,,,,,,,,,,,,,,,,,,,,,,,,,,,,,,,,,,,,,,,,,,,,,,,,,,,,,,,,,,,,,,,,,,,,,,,,8,001,3,2,2018_Oct_04_1120,Dissertation,59.49359316166042,
single_right,j,0,It's no problem if you need to guess the answer from time to time,It's important that you don't guess.,Verdadero,Falso,j,practice,,,,,,,,,,,0,0,0,0,0,5,5,5,,,,,,,,,,,,,,,,,,,,,,,,,,,,,,,,,j,1,0.4728616679785773,,,,,,,,,,,,,,,,,,,,,,,,,,,,,,,,,,,,,,,,,,,,,,,,,,,,,,,,,,,,,,,,,,,,,,,,,,,,,,,,,,,,,,,,,,,8,001,3,2,2018_Oct_04_1120,Dissertation,59.49359316166042,
incongruent_left,f,0,Sometimes they'll be short,All sentences are the same.,Verdadero,Falso,j,practice,,,,,,,,,,,0,0,0,0,1,0,6,2,,,,,,,,,,,,,,,,,,,,,,,,,,,,,,,,,f,1,0.45678037498146296,,,,,,,,,,,,,,,,,,,,,,,,,,,,,,,,,,,,,,,,,,,,,,,,,,,,,,,,,,,,,,,,,,,,,,,,,,,,,,,,,,,,,,,,,,,8,001,3,2,2018_Oct_04_1120,Dissertation,59.49359316166042,
incongruent_right,j,0,Your task is to read the sentence in the most natural way possible,You don't have to pay attention to the sentence.,Verdadero,Falso,j,practice,,,,,,,,,,,0,0,0,0,1,1,7,3,,,,,,,,,,,,,,,,,,,,,,,,,,,,,,,,,j,1,0.7901916650007479,,,,,,,,,,,,,,,,,,,,,,,,,,,,,,,,,,,,,,,,,,,,,,,,,,,,,,,,,,,,,,,,,,,,,,,,,,,,,,,,,,,,,,,,,,,8,001,3,2,2018_Oct_04_1120,Dissertation,59.49359316166042,
single_left,f,0,The questions that follow each sentence sometimes will be obvious and sometimes more difficult ,The difficulty of each sentence varies.,Verdadero,Falso,f,practice,,,,,,,,,,,0,0,0,0,1,2,8,4,,,,,,,,,,,,,,,,,,,,,,,,,,,,,,,,,f,1,0.5055391759960912,,,,,,,,,,,,,,,,,,,,,,,,,,,,,,,,,,,,,,,,,,,,,,,,,,,,,,,,,,,,,,,,,,,,,,,,,,,,,,,,,,,,,,,,,,,8,001,3,2,2018_Oct_04_1120,Dissertation,59.49359316166042,
congruent_left,f,1,This is an example of the sentences you will see throughout the study,You just saw an example of a stimulus.,Verdadero,Falso,f,practice,,,,,,,,,,,0,0,0,0,1,3,9,0,,,,,,,,,,,,,,,,,,,,,,,,,,,,,,,,,f,1,0.47273262502858415,,,,,,,,,,,,,,,,,,,,,,,,,,,,,,,,,,,,,,,,,,,,,,,,,,,,,,,,,,,,,,,,,,,,,,,,,,,,,,,,,,,,,,,,,,,8,001,3,2,2018_Oct_04_1120,Dissertation,59.49359316166042,
single_right,j,0,It's no problem if you need to guess the answer from time to time,It's important that you don't guess.,Verdadero,Falso,j,practice,,,,,,,,,,,0,0,0,0,1,4,10,5,,,,,,,,,,,,,,,,,,,,,,,,,,,,,,,,,j,1,0.47327620699070394,,,,,,,,,,,,,,,,,,,,,,,,,,,,,,,,,,,,,,,,,,,,,,,,,,,,,,,,,,,,,,,,,,,,,,,,,,,,,,,,,,,,,,,,,,,8,001,3,2,2018_Oct_04_1120,Dissertation,59.49359316166042,
congruent_right,j,1,Sometimes the sentences will be longer,Some sentences are long.,Verdadero,Falso,f,practice,,,,,,,,,,,0,0,0,0,1,5,11,1,,,,,,,,,,,,,,,,,,,,,,,,,,,,,,,,,j,1,0.5041927429847419,,,,,,,,,,,,,,,,,,,,,,,,,,,,,,,,,,,,,,,,,,,,,,,,,,,,,,,,,,,,,,,,,,,,,,,,,,,,,,,,,,,,,,,,,,,8,001,3,2,2018_Oct_04_1120,Dissertation,59.49359316166042,
incongruent_left,f,0,Sometimes they'll be short,All sentences are the same.,Verdadero,Falso,j,practice,,,,,,,,,,,0,0,0,0,2,0,12,2,,,,,,,,,,,,,,,,,,,,,,,,,,,,,,,,,f,1,0.47225501999491826,,,,,,,,,,,,,,,,,,,,,,,,,,,,,,,,,,,,,,,,,,,,,,,,,,,,,,,,,,,,,,,,,,,,,,,,,,,,,,,,,,,,,,,,,,,8,001,3,2,2018_Oct_04_1120,Dissertation,59.49359316166042,
incongruent_right,j,0,Your task is to read the sentence in the most natural way possible,You don't have to pay attention to the sentence.,Verdadero,Falso,j,practice,,,,,,,,,,,0,0,0,0,2,1,13,3,,,,,,,,,,,,,,,,,,,,,,,,,,,,,,,,,j,1,0.43920076498761773,,,,,,,,,,,,,,,,,,,,,,,,,,,,,,,,,,,,,,,,,,,,,,,,,,,,,,,,,,,,,,,,,,,,,,,,,,,,,,,,,,,,,,,,,,,8,001,3,2,2018_Oct_04_1120,Dissertation,59.49359316166042,
congruent_left,f,1,This is an example of the sentences you will see throughout the study,You just saw an example of a stimulus.,Verdadero,Falso,f,practice,,,,,,,,,,,0,0,0,0,2,2,14,0,,,,,,,,,,,,,,,,,,,,,,,,,,,,,,,,,f,1,0.5078121359692886,,,,,,,,,,,,,,,,,,,,,,,,,,,,,,,,,,,,,,,,,,,,,,,,,,,,,,,,,,,,,,,,,,,,,,,,,,,,,,,,,,,,,,,,,,,8,001,3,2,2018_Oct_04_1120,Dissertation,59.49359316166042,
congruent_right,j,1,Sometimes the sentences will be longer,Some sentences are long.,Verdadero,Falso,f,practice,,,,,,,,,,,0,0,0,0,2,3,15,1,,,,,,,,,,,,,,,,,,,,,,,,,,,,,,,,,j,1,0.4401670030201785,,,,,,,,,,,,,,,,,,,,,,,,,,,,,,,,,,,,,,,,,,,,,,,,,,,,,,,,,,,,,,,,,,,,,,,,,,,,,,,,,,,,,,,,,,,8,001,3,2,2018_Oct_04_1120,Dissertation,59.49359316166042,
single_right,j,0,It's no problem if you need to guess the answer from time to time,It's important that you don't guess.,Verdadero,Falso,j,practice,,,,,,,,,,,0,0,0,0,2,4,16,5,,,,,,,,,,,,,,,,,,,,,,,,,,,,,,,,,j,1,0.4359023399883881,,,,,,,,,,,,,,,,,,,,,,,,,,,,,,,,,,,,,,,,,,,,,,,,,,,,,,,,,,,,,,,,,,,,,,,,,,,,,,,,,,,,,,,,,,,8,001,3,2,2018_Oct_04_1120,Dissertation,59.49359316166042,
single_left,f,0,The questions that follow each sentence sometimes will be obvious and sometimes more difficult ,The difficulty of each sentence varies.,Verdadero,Falso,f,practice,,,,,,,,,,,0,0,0,0,2,5,17,4,,,,,,,,,,,,,,,,,,,,,,,,,,,,,,,,,f,1,0.4704917570343241,,,,,,,,,,,,,,,,,,,,,,,,,,,,,,,,,,,,,,,,,,,,,,,,,,,,,,,,,,,,,,,,,,,,,,,,,,,,,,,,,,,,,,,,,,,8,001,3,2,2018_Oct_04_1120,Dissertation,59.49359316166042,
incongruent_right,j,0,Your task is to read the sentence in the most natural way possible,You don't have to pay attention to the sentence.,Verdadero,Falso,j,practice,,,,,,,,,,,0,0,0,0,3,0,18,3,,,,,,,,,,,,,,,,,,,,,,,,,,,,,,,,,j,1,0.47046710399445146,,,,,,,,,,,,,,,,,,,,,,,,,,,,,,,,,,,,,,,,,,,,,,,,,,,,,,,,,,,,,,,,,,,,,,,,,,,,,,,,,,,,,,,,,,,8,001,3,2,2018_Oct_04_1120,Dissertation,59.49359316166042,
single_right,j,0,It's no problem if you need to guess the answer from time to time,It's important that you don't guess.,Verdadero,Falso,j,practice,,,,,,,,,,,0,0,0,0,3,1,19,5,,,,,,,,,,,,,,,,,,,,,,,,,,,,,,,,,j,1,0.4543858020333573,,,,,,,,,,,,,,,,,,,,,,,,,,,,,,,,,,,,,,,,,,,,,,,,,,,,,,,,,,,,,,,,,,,,,,,,,,,,,,,,,,,,,,,,,,,8,001,3,2,2018_Oct_04_1120,Dissertation,59.49359316166042,
congruent_right,j,1,Sometimes the sentences will be longer,Some sentences are long.,Verdadero,Falso,f,practice,,,,,,,,,,,0,0,0,0,3,2,20,1,,,,,,,,,,,,,,,,,,,,,,,,,,,,,,,,,j,1,0.45553227298660204,,,,,,,,,,,,,,,,,,,,,,,,,,,,,,,,,,,,,,,,,,,,,,,,,,,,,,,,,,,,,,,,,,,,,,,,,,,,,,,,,,,,,,,,,,,8,001,3,2,2018_Oct_04_1120,Dissertation,59.49359316166042,
congruent_left,f,1,This is an example of the sentences you will see throughout the study,You just saw an example of a stimulus.,Verdadero,Falso,f,practice,,,,,,,,,,,0,0,0,0,3,3,21,0,,,,,,,,,,,,,,,,,,,,,,,,,,,,,,,,,f,1,0.4250424890196882,,,,,,,,,,,,,,,,,,,,,,,,,,,,,,,,,,,,,,,,,,,,,,,,,,,,,,,,,,,,,,,,,,,,,,,,,,,,,,,,,,,,,,,,,,,8,001,3,2,2018_Oct_04_1120,Dissertation,59.49359316166042,
single_left,f,0,The questions that follow each sentence sometimes will be obvious and sometimes more difficult ,The difficulty of each sentence varies.,Verdadero,Falso,f,practice,,,,,,,,,,,0,0,0,0,3,4,22,4,,,,,,,,,,,,,,,,,,,,,,,,,,,,,,,,,f,1,0.5393701649736613,,,,,,,,,,,,,,,,,,,,,,,,,,,,,,,,,,,,,,,,,,,,,,,,,,,,,,,,,,,,,,,,,,,,,,,,,,,,,,,,,,,,,,,,,,,8,001,3,2,2018_Oct_04_1120,Dissertation,59.49359316166042,
incongruent_left,f,0,Sometimes they'll be short,All sentences are the same.,Verdadero,Falso,j,practice,,,,,,,,,,,0,0,0,0,3,5,23,2,,,,,,,,,,,,,,,,,,,,,,,,,,,,,,,,,f,1,0.7554133310331963,,,,,,,,,,,,,,,,,,,,,,,,,,,,,,,,,,,,,,,,,,,,,,,,,,,,,,,,,,,,,,,,,,,,,,,,,,,,,,,,,,,,,,,,,,,8,001,3,2,2018_Oct_04_1120,Dissertation,59.49359316166042,
,,,,,,,,,,,,,,,,,,,0,0,0,0,,,,,,,,,,,,,,,,,,,,,,,,,,,,,,,,,,,,,,,,,,,,,,,,,,,,,,,,,,,,,,,,,,,,,,,,,,,,,,,,,,,,,,,,,,,,,,,,,,,,,,,,,,,,,,,,,,,,,,,,,,,,,,,,,,8,001,3,2,2018_Oct_04_1120,Dissertation,59.49359316166042,
,,,,,,,,,,,,,,,,,,,,,,,,,,,,,,,,,,,,,,,,,,,,,,,,,,,,,,,,,,,,,,space,19.806919174967334,,,,,,,,,,,,,,,,,,,,,,,,,,,,,,,,,,,,,,,,,,,,,,,,,,,,,,,,,,,,,,,,,,,,,,,,,,,,,,,,,,,,,,,,,8,001,3,2,2018_Oct_04_1120,Dissertation,59.49359316166042,
,,,,,,,,,,,,,,,,,,,,,,,,,,,,,,,,,,,,,,,,,,,,,,,,,,,,,,,,,,,,,,,,space,11.904224973986857,,,,,,,,,,,,,,,,,,,,,,,,,,,,,,,,,,,,,,,,,,,,,,,,,,,,,,,,,,,,,,,,,,,,,,,,,,,,,,,,,,,,,,,8,001,3,2,2018_Oct_04_1120,Dissertation,59.49359316166042,
congruent_left,f,1,This is an example of the sentences you will see throughout the study,You just saw an example of a stimulus.,Verdadero,Falso,f,practice,,,,,,,,,,,,,,,,,,,0,0,0,0,0,0,0,0,,,,,,,,,,,,,,,,,,,,,,,,,,,,,,,,space,0.4353043499868363,3.7944687040289864,3.778653747984208,3.7944687040289864,1.9893730799667537,1.9560255000251345,5.78384178399574,1.1866075600264594,1.1543790000141598,6.9704493440221995,1.036535641993396,0.992372857988812,8.006984986015595,1.0192764200037345,0.9698044729884714,9.02626140601933,0.701670694979839,0.6736561420257203,9.727932100999169,0.6517015930148773,0.6225401179981418,10.379633694014046,0.8007841169601306,0.7710127939935774,11.180417810974177,0.6530844300286844,0.6247497739968821,11.833502241002861,0.6337900980142877,0.6017303900443949,12.467292339017149,0.6361959769856185,0.6069713770411909,13.103488316002768,0.6173250779975206,0.5890945949940942,13.720813394000288,0.602653254987672,0.5727455100277439,14.32346664898796,f,1,3.7143751370022073,,,,,,,,,,,,,,,,,,,,,,,,,,,,,,,,,,,,,,,,,,,8,001,3,2,2018_Oct_04_1120,Dissertation,59.49359316166042,
congruent_right,j,1,Sometimes the sentences will be longer,Some sentences are long.,Verdadero,Falso,f,practice,,,,,,,,,,,,,,,,,,,0,0,0,0,0,1,1,1,,,,,,,,,,,,,,,,,,,,,,,,,,,,,,,,,,1.658802015997935,1.6467322860262357,1.658802015997935,0.619231564051006,0.5916449590004049,2.278033580048941,0.6012567909783684,0.5683110380196013,2.8792903710273094,0.5524946869700216,0.5241298950277269,3.431785057997331,0.6001178710139357,0.5710192489787005,4.031902929011267,0.5692884440068156,0.5407817629748024,4.601191373018082,,,,,,,,,,,,,,,,,,,,,,f,1,1.0551942290039733,,,,,,,,,,,,,,,,,,,,,,,,,,,,,,,,,,,,,,,,,,,8,001,3,2,2018_Oct_04_1120,Dissertation,59.49359316166042,
incongruent_left,f,0,Sometimes they'll be short,All sentences are the same.,Verdadero,Falso,j,practice,,,,,,,,,,,,,,,,,,,0,0,0,0,0,2,2,2,,,,,,,,,,,,,,,,,,,,,,,,,,,,,,,,,,0.6978502330021001,0.6947187159676105,0.6978502330021001,0.5680584069923498,0.538631672039628,1.26590863999445,0.5511738079949282,0.5220369980088435,1.8170824479893781,0.5685697320150211,0.5391699229949154,2.3856521800043993,,,,,,,,,,,,,,,,,,,,,,,,,,,,j,1,1.523825085023418,,,,,,,,,,,,,,,,,,,,,,,,,,,,,,,,,,,,,,,,,,,8,001,3,2,2018_Oct_04_1120,Dissertation,59.49359316166042,
incongruent_right,j,0,Your task is to read the sentence in the most natural way possible,You don't have to pay attention to the sentence.,Verdadero,Falso,j,practice,,,,,,,,,,,,,,,,,,,0,0,0,0,0,3,3,3,,,,,,,,,,,,,,,,,,,,,,,,,,,,,,,,,,0.7633820719784126,0.7507024230435491,0.7633820719784126,1.0034326080349274,1.0063787539838813,1.76681468001334,0.600014466966968,0.48829666496021673,2.366829146980308,0.46871828503208235,0.41738673800136894,2.8355474320123903,0.400743815000169,0.3720978450146504,3.2362912470125593,0.6189635289483704,0.5722010990139097,3.8552547759609297,0.5515678740339354,0.5227243949775584,4.406822649994865,0.5850141060072929,0.5365027909865603,4.991836756002158,0.5000768050085753,0.47427696303930134,5.491913561010733,0.519260355969891,0.4662087769829668,6.011173916980624,0.5505426860181615,0.521125522966031,6.561716602998786,0.5011430319864303,0.4714924219879322,7.062859634985216,0.46823201299412176,0.4376597549999133,7.531091647979338,j,1,1.942316280968953,,,,,,,,,,,,,,,,,,,,,,,,,,,,,,,,,,,,,,,,,,,8,001,3,2,2018_Oct_04_1120,Dissertation,59.49359316166042,
single_left,f,0,The questions that follow each sentence sometimes will be obvious and sometimes more difficult ,The difficulty of each sentence varies.,Verdadero,Falso,f,practice,,,,,,,,,,,,,,,,,,,0,0,0,0,0,4,4,4,,,,,,,,,,,,,,,,,,,,,,,,,,,,,,,,,,0.7930909709539264,0.7698260400211439,0.7930909709539264,0.4173440739978105,0.38789277500472963,1.210435044951737,0.4528301460086368,0.4072799470159225,1.6632651909603737,0.6848824030021206,0.6408827490522526,2.3481475939624943,0.5509842920000665,0.5074830059893429,2.8991318859625608,0.5839719580253586,0.5372293450054713,3.4831038439879194,0.6350690230028704,0.5877074110321701,4.11817286699079,0.6523839199799113,0.6056833799812011,4.770556786970701,0.6695138090290129,0.6306590180029161,5.440070595999714,0.5011280199978501,0.4556348799960688,5.941198615997564,0.46751133300131187,0.4396542980102822,6.408709948998876,0.4681621749768965,0.43469070497667417,6.876872123975772,0.4505175619851798,0.4014179880032316,7.327389685960952,f,1,1.4244012070121244,0.3846792100230232,0.338621663977392,7.712068895983975,,,,,,,,,,,,,,,,,,,,,,,,,,,,,,,,,,,,,,,,8,001,3,2,2018_Oct_04_1120,Dissertation,59.49359316166042,
single_right,j,0,It's no problem if you need to guess the answer from time to time,It's important that you don't guess.,Verdadero,Falso,j,practice,,,,,,,,,,,,,,,,,,,0,0,0,0,0,5,5,5,,,,,,,,,,,,,,,,,,,,,,,,,,,,,,,,,,1.7822653050534427,1.771519202971831,1.7822653050534427,0.5333644609781913,0.50494182104012,2.315629766031634,0.6517834520200267,0.6230812050052918,2.967413218051661,0.5847155719529837,0.554089401033707,3.5521287900046445,0.5855785000021569,0.5566031960188411,4.1377072900068015,0.5684596479986794,0.5228947380091995,4.706166938005481,0.5170781000051647,0.48815536504844204,5.223245038010646,0.4346678950241767,0.4046576760010794,5.657912933034822,0.4509871869813651,0.42085499298991635,6.108900120016187,0.401451890997123,0.3713309270096943,6.51035201101331,0.4021487790159881,0.37290218396810815,6.9125007900292985,0.4346883600228466,0.4057577319908887,7.347189150052145,0.36758795799687505,0.3386569329886697,7.71477710804902,j,1,1.838197509991005,0.38441802200395614,0.3556768100243062,8.099195130052976,,,,,,,,,,,,,,,,,,,,,,,,,,,,,,,,,,,,,,,,8,001,3,2,2018_Oct_04_1120,Dissertation,59.49359316166042,
,,,,,,,,,,,,,,,,,,,,,,,,,,,0,0,0,0,,,,,,,,,,,,,,,,,,,,,,,,,,,,,,,,,,,,,,,,,,,,,,,,,,,,,,,,,,,,,,,,,,,,,,,,,,,,,,,,,,,,,,,,,,,,,,,,,,,,,,,,,,,,,,,,,,,,,,,,,,8,001,3,2,2018_Oct_04_1120,Dissertation,59.49359316166042,
,,,,,,,,,,,,,,,,,,,,,,,,,,,,,,,,,,,,,,,,,,,,,,,,,,,,,,,,,,,,,,,,,,,,,,,,,,,,,,,,,,,,,,,,,,,,,,,,,,,,,,,,,,,,,,,,,space,50.94856177800102,,,,,,,,,,,,,,,,,,,,,,,,,,,,,,,,,,,,,,8,001,3,2,2018_Oct_04_1120,Dissertation,59.49359316166042,
,,None,,,Verdadero,Falso,f,None,congruent_right,Me gusta vivir en la ciudad de Washington porque tiene mucha historia,None,None,None,None,j,None,0,Estoy contento viviendo en D.C.,,,,,,,,,,,,,,,,,0,0,0,0,0,0,0,3,,,,,,,,,,,,,,,,,,,,,,,,,,1.1531933289952576,1.131435520015657,1.1531933289952576,0.5013614859781228,0.402392617019359,1.6545548149733804,0.7852617119788192,0.7559773940010928,2.4398165269521996,0.6013537830440328,0.5573363730218261,3.0411703099962324,0.5346149169490673,0.5038814200088382,3.5757852269452997,0.5530020400183275,0.5241712770075537,4.128787266963627,0.7015514230006374,0.6739922779961489,4.830338689964265,0.6174731380306184,0.584297624998726,5.447811827994883,0.5352141569601372,0.5021474870154634,5.98302598495502,0.5343044800101779,0.5045522219734266,6.517330464965198,0.4845030420110561,0.45401838497491553,7.001833506976254,0.6194100530119613,0.5908269709907472,7.621243559988216,,,,,,,,,,,,space,3.847380154998973,j,1,0.7909980349941179,f,1,1.6925999299855903,None,,,,,,,,,,,,,,,,,,,,,,,,,,,,,8,001,3,2,2018_Oct_04_1120,Dissertation,59.49359316166042,
,,None,,,Verdadero,Falso,f,None,incongruent_right,Estudio mucho durante la semana para poder divertirme durante el fin de semana,None,None,None,None,j,None,0,No voy a la biblioteca mucho los fines de semana.,,,,,,,,,,,,,,,,,0,0,0,0,0,1,1,2,,,,,,,,,,,,,,,,,,,,,,,,,,6.7178383900318295,6.686760116950609,6.7178383900318295,0.5178491999977268,0.4850607980042696,7.235687590029556,0.4337224729824811,0.4012236900161952,7.669410063012037,0.5011260419851169,0.4726971610216424,8.170536104997154,0.5024073130334727,0.46887836302630603,8.672943418030627,0.449771857005544,0.4195948790293187,9.122715275036171,0.452191142947413,0.41916407499229535,9.574906417983584,0.43472548201680183,0.4058983970317058,10.009631900000386,0.46821853797882795,0.4191340009565465,10.477850437979214,0.46730634005507454,0.43898608296876773,10.945156778034288,0.46758775698253885,0.43892281997250393,11.412744535016827,0.45158687798539177,0.41781069501303136,11.864331413002219,0.45016249001491815,0.41964247601572424,12.314493903017137,,,,,,,,,,,j,1,0.7872313410043716,f,1,4.316852980002295,None,,,,,,,,,,,,,,,,,,,,,,,,,,,,,8,001,3,2,2018_Oct_04_1120,Dissertation,59.49359316166042,
,,None,,,Verdadero,Falso,j,None,incongruent_left,Mi estación preferida es el verano,None,None,None,None,f,None,0,Me gusta el invierno más que las otras estaciones.,,,,,,,,,,,,,,,,,0,0,0,0,0,2,2,1,,,,,,,,,,,,,,,,,,,,,,,,,,0.5854049789486453,0.5827216450124979,0.5854049789486453,0.4176239070366137,0.38835643901256844,1.003028885985259,0.45029556896770373,0.4173981130006723,1.4533244549529627,0.9702820290112868,0.957986030029133,2.4236064839642495,0.7862208070000634,0.7570832449709997,3.209827290964313,0.5176890600123443,0.4855034799547866,3.727516350976657,,,,,,,,,,,,,,,,,,,,,,,,,,,,,,,,f,1,1.0369004299864173,j,1,2.3910459200269543,None,,,,,,,,,,,,,,,,,,,,,,,,,,,,,8,001,3,2,2018_Oct_04_1120,Dissertation,59.49359316166042,
,,None,,,Verdadero,Falso,j,None,single_left,A Iván le gusta cocinar y toma clases de gastronomía,None,None,None,None,f,None,0,Iván cocina mucho.,,,,,,,,,,,,,,,,,0,0,0,0,0,3,3,5,,,,,,,,,,,,,,,,,,,,,,,,,,0.733856274979189,0.7189049439621158,0.733856274979189,0.39991384698078036,0.3693684149766341,1.1337701219599694,0.4024502949905582,0.3693031360162422,1.5362204169505276,0.4333170560421422,0.40302661497844383,1.9695374729926698,0.36799280799459666,0.33825362799689174,2.3375302809872665,0.6515727919759229,0.6215723030036315,2.9891030729631893,0.435574492032174,0.40694675501435995,3.4246775649953634,0.7856948749977164,0.7562400430324487,4.21037243999308,0.49994910997338593,0.4707890740246512,4.710321549966466,0.5684693470248021,0.5380969449761324,5.278790896991268,,,,,,,,,,,,,,,,,,,,f,1,0.45518543699290603,f,0,1.7935484879999422,None,,,,,,,,,,,,,,,,,,,,,,,,,,,,,8,001,3,2,2018_Oct_04_1120,Dissertation,59.49359316166042,
,,None,,,Verdadero,Falso,f,None,single_right,La madre de Julieta vive en Filadelfia así que Julieta la visita mucho,None,None,None,None,j,None,0,Julieta y su madre se ven mucho.,,,,,,,,,,,,,,,,,0,0,0,0,0,4,4,4,,,,,,,,,,,,,,,,,,,,,,,,,,0.5843343969900161,0.5717194370226935,0.5843343969900161,0.38362373202107847,0.3360048699541949,0.9679581290110946,0.33538485498866066,0.3061616460327059,1.3033429839997552,0.4514081969973631,0.4230020780232735,1.7547511809971184,0.550799900025595,0.5221283049904741,2.3055510810227133,1.4384313629707322,1.4092477280064486,3.7439824439934455,0.5676004749839194,0.5226391379837878,4.311582918977365,1.487633801996708,1.4586537700379267,5.799216720974073,0.7521265030372888,0.7235857369960286,6.551343224011362,0.4340265169739723,0.4014230070170015,6.985369740985334,0.5353151030139998,0.5065596050117165,7.520684843999334,0.43371171498438343,0.4053300449741073,7.954396558983717,0.6177752329967916,0.5896796990418807,8.572171791980509,,,,,,,,,,,j,1,0.5731584840104915,f,1,2.4929465109598823,None,,,,,,,,,,,,,,,,,,,,,,,,,,,,,8,001,3,2,2018_Oct_04_1120,Dissertation,59.49359316166042,
,,None,,,Verdadero,Falso,j,None,congruent_left,El chico corrió en el parque ayer,None,None,None,None,f,None,0,El chico no hizo nada ayer.,,,,,,,,,,,,,,,,,0,0,0,0,0,5,5,0,,,,,,,,,,,,,,,,,,,,,,,,,,0.7010905650095083,0.6910943010007031,0.7010905650095083,0.43505859398283064,0.4044494240079075,1.136149158992339,0.41760584502480924,0.3909006589674391,1.5537550040171482,0.36836356099229306,0.34003284899517894,1.9221185650094412,0.34969027899205685,0.32010978797916323,2.271808844001498,0.36878791102208197,0.33972765697399154,2.64059675502358,0.36847495497204363,0.33996974799083546,3.0090717099956237,,,,,,,,,,,,,,,,,,,,,,,,,,,,,f,1,0.5194478870253079,j,1,1.7232698010047898,None,,,,,,,,,,,,,,,,,,,,,,,,,,,,,8,001,3,2,2018_Oct_04_1120,Dissertation,59.49359316166042,
,,,,,,,,,,,,,,,,,,,,,,,,,,,,,,,,,,,0,0,0,0,,,,,,,,,,,,,,,,,,,,,,,,,,,,,,,,,,,,,,,,,,,,,,,,,,,,,,,,,,,,,,,,,,,,,,,,,,,,,,,,,,,,,,,,,,,,,,,,,,,,,,,,,,,,,,,,,,8,001,3,2,2018_Oct_04_1120,Dissertation,59.49359316166042,
,,,,,,,,,,,,,,,,,,,,,,,,,,,,,,,,,,,,,,,,,,,,,,,,,,,,,,,,,,,,,,,,,,,,,,,,,,,,,,,,,,,,,,,,,,,,,,,,,,,,,,,,,,,,,,,,,,,,,,,,,,,,space,8.077536951983348,,,,,,,,,,,,,,,,,,,,,,,,,,,8,001,3,2,2018_Oct_04_1120,Dissertation,59.49359316166042,
,,0,,,Verdadero,Falso,f,A,incongruent_right,Los trabajadores colocaron los avisos que su jefe les dejó en la carpeta en la puerta de la oficina,1,1,1,0,j,1,20,Los avisos están colgados en la puerta.,,,,,,,,,,,,,,,,,,,,,,,,,0,0,0,0,0,0,0,19,,,,,,,,,,,,,,,,,,0.717316385009326,0.699162331991829,0.717316385009326,0.3669585649622604,0.3389917249442078,1.0842749499715865,0.5342159119900316,0.5030172319966368,1.618490861961618,0.7363499400089495,0.7059049400268123,2.3548408019705676,1.237006260023918,1.2079335019807331,3.5918470619944856,1.2187193149584346,1.169982680992689,4.81056637695292,1.220265656011179,1.1735612090560608,6.030832032964099,0.6347555940155871,0.6047574780532159,6.665587626979686,0.618560382979922,0.5876215869793668,7.284148009959608,0.5687724699964747,0.5402818930451758,7.852920479956083,0.6846481219981797,0.6517926200176589,8.537568601954263,0.5342872129986063,0.5046489390078932,9.071855814952869,0.5181473580305465,0.4709824430174194,9.590003172983415,,,,0.6020489549846388,0.552448328002356,10.192052127968054,,,,,j,1,0.6403356500086375,j,0,6.957358212035615,,,,0.5843386100023054,0.553480910952203,10.77639073797036,0.5197243890143,0.49094534502364695,11.29611512698466,1.6543811950250529,1.6093190779793076,12.950496322009712,0.5179085429990664,0.4899743649875745,13.468404865008779,0.43409274698933586,0.40717536001466215,13.902497611998115,None,None,,,,,,,,,,8,001,3,2,2018_Oct_04_1120,Dissertation,59.49359316166042,
,,0,,,Verdadero,Falso,j,A,single_left,Mis hijas están saltando la cuerda en el jardín,0,0,0,1,f,0,226,A mis hijas no les gusta jugar en el jardín.,,,,,,,,,,,,,,,,,,,,,,,,,0,0,0,0,0,1,1,55,,,,,,,,,,,,,,,,,,0.8001993030193262,0.775392159994226,0.8001993030193262,0.3183512419927865,0.3014292129664682,1.1185505450121127,0.25060858100187033,0.22075617697555572,1.369159126013983,0.5171110070077702,0.48606403300073,1.8862701330217533,0.40237590699689463,0.3726356680272147,2.288646040018648,0.634926764992997,0.6062586629996076,2.923572805011645,0.5013698380207643,0.46871244302019477,3.4249426430324093,0.4337190569494851,0.40464637195691466,3.8586616999818943,0.5357289600069635,0.5057985180174001,4.394390659988858,,,,,,,,,,,,,,,,,,,,,,,f,1,0.6736666769720614,j,1,2.7635191080044024,,,,,,,,,,,,,,,,,,,None,None,,,,,,,,,,8,001,3,2,2018_Oct_04_1120,Dissertation,59.49359316166042,
,,0,,,Verdadero,Falso,f,A,incongruent_left,Cuando la chica lava los platos se quedan bien sucios,1,1,1,0,f,1,9,La chica lava sin cuidado.,,,,,,,,,,,,,,,,,,,,,,,,,0,0,0,0,0,2,2,8,,,,,,,,,,,,,,,,,,0.6510272219893523,0.6394223619718105,0.6510272219893523,0.30073527502827346,0.2674179199966602,0.9517624970176257,0.25043076794827357,0.2216247150208801,1.2021932649658993,0.5016727600013837,0.4734395970008336,1.703866024967283,0.5850574370124377,0.5565387000096962,2.2889234619797207,0.45014276303118095,0.42177852004533634,2.7390662250109017,0.43570466700475663,0.4053514300030656,3.1747708920156583,0.5507256499840878,0.5220390529721044,3.725496541999746,0.4513420980074443,0.4216736829839647,4.17683864000719,0.45177149499068037,0.42228454997530207,4.628610134997871,,,,,,,,,,,,,,,,,,,,f,1,0.6895209599751979,f,1,2.5239709470188245,,,,,,,,,,,,,,,,,,,None,None,,,,,,,,,,8,001,3,2,2018_Oct_04_1120,Dissertation,59.49359316166042,
,,0,,,Verdadero,Falso,j,A,single_left,Los estudiantes hicieron el trabajo en equipo en la biblioteca,0,0,0,1,f,0,202,Los estudiantes hicieron la tarea en el café.,,,,,,,,,,,,,,,,,,,,,,,,,0,0,0,0,0,3,3,31,,,,,,,,,,,,,,,,,,0.7676220249850303,0.7572545800358057,0.7676220249850303,0.38494205300230533,0.3553296549944207,1.1525640779873356,0.30011696001747623,0.2716363450163044,1.4526810380048119,0.46843030996387824,0.43510742497164756,1.92111134796869,0.48387505701975897,0.45505868998588994,2.404986404988449,0.5519767680088989,0.5218838049913757,2.956963172997348,0.4684355469653383,0.43919559195637703,3.4253987199626863,0.601053768012207,0.5726958650047891,4.026452487974893,0.5350585700361989,0.5052970169926994,4.561511058011092,0.46808523999061435,0.4391111019649543,5.029596298001707,,,,,,,,,,,,,,,,,,,,f,1,0.6348476630519144,j,1,1.8368406950030476,,,,,,,,,,,,,,,,,,,None,None,,,,,,,,,,8,001,3,2,2018_Oct_04_1120,Dissertation,59.49359316166042,
,,0,,,Verdadero,Falso,j,A,single_right,Las flores en mi apartamento hacen que la sala brille,0,0,0,1,j,0,224,No tengo plantas en mi apartamento por mis alergias.,,,,,,,,,,,,,,,,,,,,,,,,,0,0,0,0,0,4,4,53,,,,,,,,,,,,,,,,,,0.5840683580026962,0.5759667109814472,0.5840683580026962,0.35129134700400755,0.3230323600000702,0.9353597050067037,0.316509602998849,0.28730157198151574,1.2518693080055527,0.4017502520000562,0.3687059879885055,1.653619560005609,0.35106336302123964,0.31806797499302775,2.0046829230268486,0.41781879699556157,0.3889362550107762,2.42250172002241,0.3841879929532297,0.35522460500942543,2.80668971297564,0.45121240004664287,0.42200738698011264,3.2579021130222827,0.6849643369787373,0.6559773470507935,3.94286645000102,0.5850259899743833,0.5559001400251873,4.527892439975403,,,,,,,,,,,,,,,,,,,,j,1,0.5396659830003045,j,1,2.292513391992543,,,,,,,,,,,,,,,,,,,None,None,,,,,,,,,,8,001,3,2,2018_Oct_04_1120,Dissertation,59.49359316166042,
,,0,,,Verdadero,Falso,f,A,single_right,The boy,0,0,0,1,j,0,302,a,,,,,,,,,,,,,,,,,,,,,,,,,0,0,0,0,0,5,5,61,,,,,,,,,,,,,,,,,,,,,,,,,,,,,,,,,,,,,,,,,,,,,,,,,,,,,,,,,,,,,,,,,,,j,1,0.6740493859979324,None,0,,,,,,,,,,,,,,,,,,,,None,None,,,,,,,,,,8,001,3,2,2018_Oct_04_1120,Dissertation,59.49359316166042,
,,1,,,Verdadero,Falso,f,A,congruent_right,Cuando era niña Inés saltaba la cuerda mucho ,0,0,0,0,j,0,211,Inés sabe saltar la cuerda.,,,,,,,,,,,,,,,,,,,,,,,,,0,0,0,0,0,6,6,40,,,,,,,,,,,,,,,,,,1.1187096720095724,1.1085472569684498,1.1187096720095724,0.5851416080258787,0.5568194899824448,1.703851280035451,0.4341773549676873,0.40514781698584557,2.1380286350031383,1.5535825950209983,1.5248096049763262,3.6916112300241366,0.6007477180100977,0.5691598420380615,4.292358948034234,0.6521256970008835,0.6175890180165879,4.944484645035118,0.4515303120133467,0.41818812798010185,5.396014957048465,0.4186444449587725,0.4065200050245039,5.814659402007237,,,,,,,,,,,,,,,,,,,,,,,,,,j,1,0.7565355649567209,f,1,1.7724342729779892,,,,,,,,,,,,,,,,,,,None,None,,,,,,,,,,8,001,3,2,2018_Oct_04_1120,Dissertation,59.49359316166042,
,,0,,,Verdadero,Falso,f,A,single_left,The boy,0,0,0,1,f,0,301,a,,,,,,,,,,,,,,,,,,,,,,,,,0,0,0,0,0,7,7,60,,,,,,,,,,,,,,,,,,,,,,,,,,,,,,,,,,,,,,,,,,,,,,,,,,,,,,,,,,,,,,,,,,,f,1,0.47154668701114133,None,0,,,,,,,,,,,,,,,,,,,,None,None,,,,,,,,,,8,001,3,2,2018_Oct_04_1120,Dissertation,59.49359316166042,
,,0,,,Verdadero,Falso,j,A,single_left,La participante brilló cuando ganó el maratón,0,0,0,1,f,0,218,La participante se quedó triste después del maratón.,,,,,,,,,,,,,,,,,,,,,,,,,0,0,0,0,0,8,8,47,,,,,,,,,,,,,,,,,,0.6851741800201125,0.6747748940251768,0.6851741800201125,0.33469193195924163,0.30654039001092315,1.0198661119793542,0.4168466810369864,0.38652736600488424,1.4367127930163406,0.4352191789657809,0.40546496002934873,1.8719319719821215,0.5017045779968612,0.4686640630243346,2.3736365499789827,0.4505332100088708,0.4218759100185707,2.8241697599878535,0.5687180020031519,0.5396799430018291,3.3928877619910054,,,,,,,,,,,,,,,,,,,,,,,,,,,,,f,1,0.4220691790105775,j,1,2.395102226990275,,,,,,,,,,,,,,,,,,,None,None,,,,,,,,,,8,001,3,2,2018_Oct_04_1120,Dissertation,59.49359316166042,
,,0,,,Verdadero,Falso,f,A,single_left,The boy,0,0,0,1,f,0,305,a,,,,,,,,,,,,,,,,,,,,,,,,,0,0,0,0,0,9,9,64,,,,,,,,,,,,,,,,,,,,,,,,,,,,,,,,,,,,,,,,,,,,,,,,,,,,,,,,,,,,,,,,,,,f,1,0.6857993850135244,None,0,,,,,,,,,,,,,,,,,,,,None,None,,,,,,,,,,8,001,3,2,2018_Oct_04_1120,Dissertation,59.49359316166042,
,,0,,,Verdadero,Falso,f,A,single_right,Mi hermana guardó en su celular el número del chico guapo,0,0,0,1,j,0,208,A mi hermana le gustaría salir con el chico.,,,,,,,,,,,,,,,,,,,,,,,,,0,0,0,0,0,10,10,37,,,,,,,,,,,,,,,,,,0.6163548499462195,0.6050897269742563,0.6163548499462195,0.38557850004872307,0.3549331320100464,1.0019333499949425,0.38446617196314037,0.3558203550055623,1.386399521958083,0.3677985580288805,0.3392661069519818,1.7541980799869634,0.44994148501427844,0.4213084200164303,2.204139565001242,0.4016884969896637,0.37323586002457887,2.6058280619909056,2.9417290649726056,2.9122689780197106,5.547557126963511,0.5346708900178783,0.506457399984356,6.082228016981389,1.6217457079910673,1.5946246479870752,7.703973724972457,0.3833246610010974,0.3416029710206203,8.087298385973554,0.41552914498606697,0.38618015096290037,8.502827530959621,,,,,,,,,,,,,,,,,j,1,0.7740409569814801,f,1,2.393193126015831,,,,,,,,,,,,,,,,,,,None,None,,,,,,,,,,8,001,3,2,2018_Oct_04_1120,Dissertation,59.49359316166042,
,,1,,,Verdadero,Falso,j,A,congruent_left,Antes de que cantaran esa canción no era muy conocida ,1,1,0,0,f,0,6,Todos ya se sabían la canción antes de la fiesta.,,,,,,,,,,,,,,,,,,,,,,,,,0,0,0,0,0,11,11,5,,,,,,,,,,,,,,,,,,0.7026985220145434,0.6924998169997707,0.7026985220145434,0.33343413000693545,0.3052203530096449,1.0361326520214789,0.3005308579886332,0.26711866800906137,1.336663510010112,0.23379797697998583,0.20357655099360272,1.570461486990098,0.5185146300354972,0.4897756549762562,2.088976117025595,0.7356013429816812,0.6859253300353885,2.8245774600072764,0.46718009101459756,0.4366801350261085,3.291757551021874,0.450757289014291,0.4208127840538509,3.742514840036165,0.38458382297540084,0.35452120599802583,4.127098663011566,0.5342677879962139,0.5016366799827665,4.66136645100778,,,,,,,,,,,,,,,,,,,,f,1,0.5010978329810314,j,1,4.222509739978705,,,,,,,,,,,,,,,,,,,None,None,,,,,,,,,,8,001,3,2,2018_Oct_04_1120,Dissertation,59.49359316166042,
,,0,,,Verdadero,Falso,f,A,incongruent_left,El mesero vació el vino que los clientes dejaron en la mesa en el fregadero después de que se fueron,1,1,1,0,f,1,17,Los clientes se fueron sin tomar todo el vino. ,,,,,,,,,,,,,,,,,,,,,,,,,0,0,0,0,0,12,12,16,,,,,,,,,,,,,,,,,,0.6345214319881052,0.6149172559962608,0.6345214319881052,0.2849417719990015,0.25177842599805444,0.9194632039871067,0.2832654779776931,0.23752892395714298,1.2027286819647998,1.4711996520054527,1.44345969700953,2.6739283339702524,0.5009987580124289,0.4719926249817945,3.1749270919826813,0.3512058319756761,0.322983265039511,3.5261329239583574,0.5836973389959894,0.5511291730217636,4.109830262954347,0.45079417602391914,0.4220746190403588,4.560624438978266,0.5358483889722265,0.5070526580093428,5.0964728279504925,0.4009624340105802,0.3515836999868043,5.497435261961073,0.4685488400282338,0.4401342500350438,5.9659841019893065,0.46774882497265935,0.4384475799743086,6.433732926961966,0.4678802270209417,0.4184637800208293,6.9016131539829075,,,,0.3336332399630919,0.286900823994074,7.235246393945999,,,,,f,1,0.5536338289966807,f,1,2.2105118880281225,,,,0.3350173600483686,0.30599496996728703,7.570263753994368,0.4012734579737298,0.3731407069717534,7.971537211968098,0.8522884119884111,0.823538024968002,8.823825623956509,0.4339338800054975,0.4048830249812454,9.257759503962006,0.3852408879902214,0.3565340929781087,9.643000391952228,None,None,0.3163711220258847,0.2847415819996968,9.959371513978112,,,,,,,8,001,3,2,2018_Oct_04_1120,Dissertation,59.49359316166042,
,,0,,,Verdadero,Falso,f,A,single_left,El mecánico estará de vacaciones solo unos días,0,0,0,1,f,0,230,El mecánico viaja solo.,,,,,,,,,,,,,,,,,,,,,,,,,0,0,0,0,0,13,13,59,,,,,,,,,,,,,,,,,,0.5674860900035128,0.5531685299938545,0.5674860900035128,0.334499706979841,0.3064394950051792,0.9019857969833538,0.283269619976636,0.2516408019582741,1.1852554169599898,0.3848905499908142,0.3513440149836242,1.570145966950804,0.45072792499559,0.421487781975884,2.020873891946394,1.4024318550364114,1.3718377540353686,3.4233057469828054,0.5018050330108963,0.47061233001295477,3.9251107799937017,0.5178137019975111,0.49087789497571066,4.442924481991213,,,,,,,,,,,,,,,,,,,,,,,,,,f,1,0.4240488280192949,f,1,5.687749021977652,,,,,,,,,,,,,,,,,,,None,None,,,,,,,,,,8,001,3,2,2018_Oct_04_1120,Dissertation,59.49359316166042,
,,0,,,Verdadero,Falso,f,A,single_right,The boy,0,0,0,1,j,0,306,a,,,,,,,,,,,,,,,,,,,,,,,,,0,0,0,0,0,14,14,65,,,,,,,,,,,,,,,,,,,,,,,,,,,,,,,,,,,,,,,,,,,,,,,,,,,,,,,,,,,,,,,,,,,j,1,0.49069365195464343,None,0,,,,,,,,,,,,,,,,,,,,None,None,,,,,,,,,,8,001,3,2,2018_Oct_04_1120,Dissertation,59.49359316166042,
,,0,,,Verdadero,Falso,j,A,incongruent_left,Justo cuando llegaban el carro viejo se chocó contra un poste de luz,0,1,1,0,f,0,123,Llegaron sin incidente.,,,,,,,,,,,,,,,,,,,,,,,,,0,0,0,0,0,15,15,21,,,,,,,,,,,,,,,,,,1.1694305149721913,1.1540210570092313,1.1694305149721913,0.4011441500042565,0.36888236802769825,1.5705746649764478,0.5347872650017962,0.501702289970126,2.105361929978244,2.054066140030045,2.0259506599977612,4.159428070008289,1.2032186230062507,1.1736354799941182,5.36264669301454,0.40240720997098833,0.37278517498634756,5.765053902985528,2.6064063120284118,2.5774937929818407,8.37146021501394,0.5689644980011508,0.5402637849911116,8.94042471301509,0.4672322099795565,0.4388106679543853,9.407656922994647,0.36768845497863367,0.33852189796743914,9.77534537797328,0.3334801300079562,0.3046036949963309,10.108825507981237,0.3009713370120153,0.2707939549582079,10.409796844993252,0.33399155002553016,0.30465561704477295,10.743788395018782,,,,,,,,,,,f,1,0.716547334974166,j,1,2.1757786630187184,,,,,,,,,,,,,,,,,,,None,None,,,,,,,,,,8,001,3,2,2018_Oct_04_1120,Dissertation,59.49359316166042,
,,0,,,Verdadero,Falso,f,A,single_right,Me reí cuando mi amiga me contó la historia de su encuentro con su ex.,0,0,0,1,j,0,220,La historia de mi amiga me dio gracia.,,,,,,,,,,,,,,,,,,,,,,,,,0,0,0,0,0,16,16,49,,,,,,,,,,,,,,,,,,0.68186896602856,0.6489408200141042,0.68186896602856,0.33442141697742045,0.28523597097955644,1.0162903830059804,0.317013563006185,0.2850384039920755,1.3333039460121654,2.591052142030094,2.544303080008831,3.924356088042259,0.5179695499828085,0.48537394701270387,4.442325638025068,0.7024861469981261,0.6698995499755256,5.144811785023194,2.0721219700062647,2.043280476995278,7.2169337550294586,0.45060292398557067,0.42025819496484473,7.667536679015029,0.6508351920056157,0.620550710009411,8.318371871020645,1.8561172439949587,1.8277049700263888,10.174489115015604,1.9219922199845314,1.8929733980330639,12.096481335000135,0.34997080004541203,0.3172133979969658,12.446452135045547,0.3853041649563238,0.35613737802486867,12.83175630000187,,,,0.300625920004677,0.271693171991501,13.132382220006548,,,,,j,1,0.5732824260485359,f,1,3.261610721994657,,,,0.35074428003281355,0.3226779169635847,13.483126500039361,,,,,,,,,,,,,None,None,,,,,,,,,,8,001,3,2,2018_Oct_04_1120,Dissertation,59.49359316166042,
,,1,,,Verdadero,Falso,f,A,congruent_right,The boy,0,0,0,0,j,0,308,a,,,,,,,,,,,,,,,,,,,,,,,,,0,0,0,0,0,17,17,67,,,,,,,,,,,,,,,,,,,,,,,,,,,,,,,,,,,,,,,,,,,,,,,,,,,,,,,,,,,,,,,,,,,j,1,0.4895230349502526,None,0,,,,,,,,,,,,,,,,,,,,None,None,,,,,,,,,,8,001,3,2,2018_Oct_04_1120,Dissertation,59.49359316166042,
,,1,,,Verdadero,Falso,f,A,congruent_right,The boy,0,0,0,0,j,0,304,a,,,,,,,,,,,,,,,,,,,,,,,,,0,0,0,0,0,18,18,63,,,,,,,,,,,,,,,,,,,,,,,,,,,,,,,,,,,,,,,,,,,,,,,,,,,,,,,,,,,,,,,,,,,j,1,0.4036694649839774,None,0,,,,,,,,,,,,,,,,,,,,None,None,,,,,,,,,,8,001,3,2,2018_Oct_04_1120,Dissertation,59.49359316166042,
,,1,,,Verdadero,Falso,f,A,congruent_left,The boy,0,0,0,0,f,0,303,a,,,,,,,,,,,,,,,,,,,,,,,,,0,0,0,0,0,19,19,62,,,,,,,,,,,,,,,,,,,,,,,,,,,,,,,,,,,,,,,,,,,,,,,,,,,,,,,,,,,,,,,,,,,f,1,0.4852263440261595,None,0,,,,,,,,,,,,,,,,,,,,None,None,,,,,,,,,,8,001,3,2,2018_Oct_04_1120,Dissertation,59.49359316166042,
,,0,,,Verdadero,Falso,j,A,single_right,El señor gordo tomó un café solo,0,0,0,1,j,0,228,El señor estaba solo cuando bebió el café.,,,,,,,,,,,,,,,,,,,,,,,,,0,0,0,0,0,20,20,57,,,,,,,,,,,,,,,,,,0.4835296650417149,0.469155689002946,0.4835296650417149,0.368202906975057,0.3555382000049576,0.8517325720167719,0.36757724499329925,0.3356642220169306,1.2193098170100711,0.551186989992857,0.5188236419926398,1.770496807002928,1.1363493830431253,1.1068357470212504,2.9068461900460534,0.48621263197856024,0.4568506730138324,3.3930588220246136,0.3819861860247329,0.3538287709816359,3.7750450080493465,,,,,,,,,,,,,,,,,,,,,,,,,,,,,j,1,0.43898266495671123,f,0,2.0767827699892223,,,,,,,,,,,,,,,,,,,None,None,,,,,,,,,,8,001,3,2,2018_Oct_04_1120,Dissertation,59.49359316166042,
,,0,,,Verdadero,Falso,f,A,incongruent_right,Siempre que la niña salta la cuerda le da por la cabeza,1,1,1,0,j,1,4,La niña se golpea cuando juega.,,,,,,,,,,,,,,,,,,,,,,,,,0,0,0,0,0,21,21,3,,,,,,,,,,,,,,,,,,0.7015202540205792,0.67506634502206,0.7015202540205792,0.2665430799825117,0.23644984303973615,0.9680633340030909,0.28432628099108115,0.25377889501396567,1.252389614994172,0.30186820100061595,0.27363721997244284,1.554257815994788,0.30763039499288425,0.2800309239537455,1.8618882109876722,0.3937942780321464,0.3509749459917657,2.2556824890198186,0.3852521000080742,0.3560048049548641,2.640934589027893,0.3508407269837335,0.3226513200206682,2.9917753160116263,0.2998246799688786,0.27083237702026963,3.291599995980505,0.30168723803944886,0.2724592149606906,3.5932872340199538,0.3169893369777128,0.28833514999132603,3.9102765709976666,0.38448082498507574,0.35481442301534116,4.294757395982742,,,,,,,,,,,,,,j,1,0.48665699298726395,f,1,5.299492105026729,,,,,,,,,,,,,,,,,,,None,None,,,,,,,,,,8,001,3,2,2018_Oct_04_1120,Dissertation,59.49359316166042,
,,0,,,Verdadero,Falso,j,A,incongruent_left,El músico colocó el instrumento que usó en su lugar después del concierto,0,1,1,0,f,0,131,El músico dejó todo desorganizado después del concierto.,,,,,,,,,,,,,,,,,,,,,,,,,0,0,0,0,0,22,22,25,,,,,,,,,,,,,,,,,,0.6023722880054265,0.5694377479958348,0.6023722880054265,0.2835341900354251,0.2557829400175251,0.8859064780408517,0.23484138998901471,0.20500000502215698,1.1207478680298664,0.24906403996283188,0.21980334300315008,1.3698119079926983,1.1712105550104752,1.1250402389559895,2.5410224630031735,0.9025610199896619,0.8734114930266514,3.4435834829928353,0.8351317649940029,0.8064045769860968,4.278715247986838,0.38438440702157095,0.3547767049749382,4.663099655008409,0.2670682899770327,0.23666927497833967,4.930167944985442,0.26771131000714377,0.23881777201313525,5.197879254992586,0.25039304001256824,0.2217764049419202,5.448272295005154,0.451664627995342,0.42258219502400607,5.899936923000496,0.4338714560144581,0.40414841496385634,6.333808379014954,,,,,,,,,,,f,1,0.568810046010185,j,1,1.6261663899640553,,,,,,,,,,,,,,,,,,,None,None,,,,,,,,,,8,001,3,2,2018_Oct_04_1120,Dissertation,59.49359316166042,
,,1,,,Verdadero,Falso,f,A,congruent_left,The boy,0,0,0,0,f,0,311,a,,,,,,,,,,,,,,,,,,,,,,,,,0,0,0,0,0,23,23,70,,,,,,,,,,,,,,,,,,,,,,,,,,,,,,,,,,,,,,,,,,,,,,,,,,,,,,,,,,,,,,,,,,,f,1,0.4715288570150733,None,0,,,,,,,,,,,,,,,,,,,,None,None,,,,,,,,,,8,001,3,2,2018_Oct_04_1120,Dissertation,59.49359316166042,
,,0,,,Verdadero,Falso,f,A,single_right,El cocinero lava las verduras en el fregadero,0,0,0,1,j,0,204,El cocinero prepara las verduras él mismo.,,,,,,,,,,,,,,,,,,,,,,,,,0,0,0,0,0,24,24,33,,,,,,,,,,,,,,,,,,0.6835521290195175,0.6695239570108242,0.6835521290195175,0.3335846840054728,0.3042783350101672,1.0171368130249903,0.2672305600135587,0.2375164440018125,1.284367373038549,0.3011389309540391,0.26987878303043544,1.585506303992588,0.33379912900272757,0.30343157600145787,1.9193054329953156,0.30123430804815143,0.270706157956738,2.220539741043467,0.3508575179730542,0.3202461990294978,2.5713972590165213,0.38581260899081826,0.353199417993892,2.9572098680073395,,,,,,,,,,,,,,,,,,,,,,,,,,j,1,0.455966149980668,f,1,8.861393372993916,,,,,,,,,,,,,,,,,,,None,None,,,,,,,,,,8,001,3,2,2018_Oct_04_1120,Dissertation,59.49359316166042,
,,0,,,Verdadero,Falso,f,A,single_left,Mientras la esposa toca el piano el esposo lava los platos,0,0,0,1,f,0,214,La esposa sabe tocar un instrumento.,,,,,,,,,,,,,,,,,,,,,,,,,0,0,0,0,0,25,25,43,,,,,,,,,,,,,,,,,,0.5676118319970556,0.5473069320432842,0.5676118319970556,0.2169041100423783,0.18824499199399725,0.7845159420394339,0.23371405998477712,0.21176933503011242,1.018230002024211,0.2349607900250703,0.18570271600037813,1.2531907920492813,0.23373241996159777,0.20497383002657443,1.486923212010879,0.3671302100410685,0.33946784504223615,1.8540534220519476,0.3010653979727067,0.27084998198552057,2.1551188200246543,0.3506818470195867,0.32145854498958215,2.505800667044241,0.28422296995995566,0.25549194001359865,2.7900236370041966,0.35024141904432327,0.317560276016593,3.14026505604852,0.25186872895574197,0.22304518800228834,3.392133785004262,,,,,,,,,,,,,,,,,f,1,0.40501431794837117,f,1,2.2103319269954227,,,,,,,,,,,,,,,,,,,None,None,,,,,,,,,,8,001,3,2,2018_Oct_04_1120,Dissertation,59.49359316166042,
,,0,,,Verdadero,Falso,f,A,incongruent_right,Mientras el novio salía el diamante se le cayó al piso,0,1,1,0,j,0,126,El novio no tenía cuidado con el diamante.,,,,,,,,,,,,,,,,,,,,,,,,,0,0,0,0,0,26,26,22,,,,,,,,,,,,,,,,,,0.7693411189829931,0.7580519070033915,0.7693411189829931,0.2509627499966882,0.2225417430163361,1.0203038689796813,0.23377433000132442,0.2056773920194246,1.2540781989810057,0.2497199160279706,0.22163790999911726,1.5037981150089763,0.317472115973942,0.2886621829820797,1.8212702309829183,0.3338106090086512,0.3053758179885335,2.1550808399915695,0.5680464270408265,0.5370359010412358,2.723127267032396,0.5518015969428234,0.5211250679567456,3.2749288639752194,0.8697139170253649,0.8438705800217576,4.144642781000584,0.41677577199880034,0.3869199650362134,4.561418552999385,0.41850509599316865,0.384439866989851,4.979923648992553,,,,,,,,,,,,,,,,,j,1,1.4069964000373147,f,1,2.7129890249925666,,,,,,,,,,,,,,,,,,,None,None,,,,,,,,,,8,001,3,2,2018_Oct_04_1120,Dissertation,59.49359316166042,
,,0,,,Verdadero,Falso,f,A,single_left,The boy,0,0,0,1,f,0,309,a,,,,,,,,,,,,,,,,,,,,,,,,,0,0,0,0,0,27,27,68,,,,,,,,,,,,,,,,,,,,,,,,,,,,,,,,,,,,,,,,,,,,,,,,,,,,,,,,,,,,,,,,,,,f,1,0.4381286079878919,None,0,,,,,,,,,,,,,,,,,,,,None,None,,,,,,,,,,8,001,3,2,2018_Oct_04_1120,Dissertation,59.49359316166042,
,,1,,,Verdadero,Falso,j,A,congruent_right,Siempre que mi hermana maneja el carro suena raro ,1,1,0,0,j,0,3,El carro está en una condición perfecta.,,,,,,,,,,,,,,,,,,,,,,,,,0,0,0,0,0,28,28,2,,,,,,,,,,,,,,,,,,0.5838862329837866,0.5617998910020106,0.5838862329837866,0.23402867099503055,0.20358865603338927,0.8179149039788172,0.23385621403576806,0.20364948001224548,1.0517711180145852,0.21846790896961465,0.18998585199005902,1.2702390269841999,0.2670421070070006,0.23868654295802116,1.5372811339912005,0.30120248801540583,0.27172472997335717,1.8384836220066063,0.4000902620027773,0.3669514859793708,2.2385738840093836,0.3687540249666199,0.3189165199873969,2.6073279089760035,1.8710330949979834,1.8420237870304845,4.478361003973987,,,,,,,,,,,,,,,,,,,,,,,j,1,0.41973592300200835,j,1,3.816124759032391,,,,,,,,,,,,,,,,,,,None,None,,,,,,,,,,8,001,3,2,2018_Oct_04_1120,Dissertation,59.49359316166042,
,,0,,,Verdadero,Falso,f,A,incongruent_left,Las chicas pusieron la sopa que su mamá preparó en la mesa antes de comer,0,1,1,0,f,0,139,Van a comer sopa.,,,,,,,,,,,,,,,,,,,,,,,,,0,0,0,0,0,29,29,29,,,,,,,,,,,,,,,,,,0.584241082018707,0.5684842750197276,0.584241082018707,0.28484626300632954,0.2564617079915479,0.8690873450250365,0.21623656497104093,0.18712535500526428,1.0853239099960774,0.3015389970387332,0.2724298950051889,1.3868629070348106,0.2836197979631834,0.2543399150017649,1.670482704997994,0.33489044004818425,0.30504128499887884,2.0053731450461783,0.3342786069842987,0.30645553598878905,2.339651752030477,0.3178827029769309,0.2896259520202875,2.657534455007408,0.5675147070433013,0.52328631200362,3.225049162050709,3.0085572279640473,2.9801640149671584,6.2336063900147565,0.2820011150324717,0.23417401901679114,6.515607505047228,0.30088070494821295,0.27209391503129154,6.816488209995441,0.31771067704539746,0.26974702399456874,7.134198887040839,,,,0.31702696095453575,0.28566875896649435,7.451225847995374,,,,,f,1,0.5920519510400482,f,1,2.110613370023202,,,,0.35148048703558743,0.3206341559998691,7.802706335030962,,,,,,,,,,,,,None,None,,,,,,,,,,8,001,3,2,2018_Oct_04_1120,Dissertation,59.49359316166042,
,,0,,,Verdadero,Falso,f,A,incongruent_left,The boy,0,0,1,0,f,0,313,a,,,,,,,,,,,,,,,,,,,,,,,,,0,0,0,0,0,30,30,72,,,,,,,,,,,,,,,,,,,,,,,,,,,,,,,,,,,,,,,,,,,,,,,,,,,,,,,,,,,,,,,,,,,f,1,0.6529752850183286,None,0,,,,,,,,,,,,,,,,,,,,None,None,,,,,,,,,,8,001,3,2,2018_Oct_04_1120,Dissertation,59.49359316166042,
,,0,,,Verdadero,Falso,f,A,single_left,Antes de correr su primer maratón María tuvo que correr mucho para practicar,0,0,0,1,f,0,210,María corrió el maratón sin entrenarse.,,,,,,,,,,,,,,,,,,,,,,,,,0,0,0,0,0,31,31,39,,,,,,,,,,,,,,,,,,0.4166008519823663,0.39701177703682333,0.4166008519823663,0.23396111803594977,0.20515177998458967,0.6505619700183161,0.268041061994154,0.23901690501952544,0.9186030320124701,0.24985245999414474,0.2174980269628577,1.1684554920066148,0.46796837501460686,0.43957238201983273,1.6364238670212217,0.4017226580181159,0.37246818700805306,2.0381465250393376,0.40033493196824566,0.3681429749703966,2.4384814570075832,0.718082309991587,0.6894105909741484,3.15656376699917,1.721413635998033,1.6722994690062478,4.877977402997203,0.41867321403697133,0.39024858199991286,5.2966506170341745,0.40059395995922387,0.372188700013794,5.697244576993398,0.46863232500618324,0.43930443696444854,6.165876901999582,0.350418885005638,0.3057736980263144,6.51629578700522,,,,,,,,,,,f,1,0.535843469959218,j,0,2.3751824619830586,,,,,,,,,,,,,,,,,,,None,None,,,,,,,,,,8,001,3,2,2018_Oct_04_1120,Dissertation,59.49359316166042,
,,1,,,Verdadero,Falso,j,A,congruent_left,Los novios montaron la mesa que su amigo les dejó en su porche en la cocina de su nuevo apartamento ,1,1,0,0,f,0,18,Los novios pusieron la mesa en su porche.,,,,,,,,,,,,,,,,,,,,,,,,,0,0,0,0,0,32,32,17,,,,,,,,,,,,,,,,,,0.6495712039759383,0.6305770149920136,0.6495712039759383,0.2508366410038434,0.21998110000276938,0.9004078449797817,0.2679706049966626,0.23484575003385544,1.1683784499764442,0.26722312899073586,0.2344238450168632,1.43560157896718,0.4843399560195394,0.4348263129941188,1.9199415349867195,0.3189837479731068,0.2855219430057332,2.2389252829598263,0.3830242379917763,0.352645777980797,2.6219495209516026,0.36868101404979825,0.33896688697859645,2.990630535001401,0.4004332899930887,0.3722212529974058,3.3910638249944896,0.4175254490110092,0.38388621096964926,3.8085892740054987,2.122542403987609,2.094987493008375,5.931131677993108,0.45060188096249476,0.4051641379483044,6.381733558955602,0.3183657660265453,0.29021889198338613,6.700099324982148,,,,0.25063185300678015,0.22177721600746736,6.950731177988928,,,,,f,1,0.48823904496384785,j,1,2.6945021700230427,,,,0.36652389296796173,0.338521902973298,7.3172550709568895,0.31784409401006997,0.2716078700032085,7.6350991649669595,0.31890590803232044,0.2853434319840744,7.95400507299928,0.23340753698721528,0.2059440800221637,8.187412609986495,0.23432125500403345,0.18937185197137296,8.421733864990529,None,None,0.2668572049587965,0.23887541703879833,8.688591069949325,,,,,,,8,001,3,2,2018_Oct_04_1120,Dissertation,59.49359316166042,
,,0,,,Verdadero,Falso,j,A,incongruent_right,Jorge puso las monedas que traía en su abrigo en la mesa cuando regresó a su casa,1,1,1,0,j,1,12,Las monedas de Jorge están en su abrigo.,,,,,,,,,,,,,,,,,,,,,,,,,0,0,0,0,0,33,33,11,,,,,,,,,,,,,,,,,,0.7505344570381567,0.7322349720052443,0.7505344570381567,0.23384174797683954,0.20492821198422462,0.9843762050149962,0.5511508220224641,0.5177401379914954,1.5355270270374604,0.8025405199732631,0.7733530930127017,2.3380675470107235,0.6019544830196537,0.5749634280218743,2.940022030030377,0.417940754967276,0.3891960050095804,3.357962784997653,0.2836892100167461,0.25557542796013877,3.6416519950143993,0.46749966498464346,0.4385194919886999,4.109151659999043,0.35207846999401227,0.3190204100101255,4.461230129993055,0.4176782050053589,0.38984357204753906,4.878908334998414,0.350846512010321,0.3222022349946201,5.229754847008735,0.2992903320118785,0.25219068897422403,5.529045179020613,0.3185109129990451,0.28814123501069844,5.8475560920196585,,,,0.5518066950025968,0.5222478319774382,6.399362787022255,,,,,j,1,1.1431272100307979,j,1,3.729031072987709,,,,0.3665393880219199,0.3355764720472507,6.765902175044175,0.3013980619725771,0.2727426780038513,7.067300237016752,0.31819406303111464,0.2888235219870694,7.385494300047867,,,,,,,None,None,,,,,,,,,,8,001,3,2,2018_Oct_04_1120,Dissertation,59.49359316166042,
,,0,,,Verdadero,Falso,f,A,incongruent_left,Después de que comieron el pollo se enfrió inmediatamente ,1,1,1,0,f,1,1,Comieron el pollo caliente.,,,,,,,,,,,,,,,,,,,,,,,,,0,0,0,0,0,34,34,0,,,,,,,,,,,,,,,,,,0.6017416980466805,0.5889083400252275,0.6017416980466805,0.251176374964416,0.22271381499012932,0.8529180730110966,0.2507183870184235,0.2236599390162155,1.10363646002952,0.2332418379955925,0.20540042500942945,1.3368782980251126,0.26685422199079767,0.23892215202795342,1.6037325200159103,0.33540114300558344,0.30540345003828406,1.9391336630214937,0.3502154320012778,0.32144069799687713,2.2893490950227715,0.45139200997073203,0.42332185502164066,2.7407411049935035,0.6855987400049344,0.6525363979744725,3.426339844998438,,,,,,,,,,,,,,,,,,,,,,,f,1,0.5718919190112501,f,1,2.641749757982325,,,,,,,,,,,,,,,,,,,None,None,,,,,,,,,,8,001,3,2,2018_Oct_04_1120,Dissertation,59.49359316166042,
,,0,,,Verdadero,Falso,j,A,incongruent_left,La pantalla de mi computadora se me rompió,0,0,1,0,f,0,221,Mi computadora está en una condición perfecta.,,,,,,,,,,,,,,,,,,,,,,,,,0,0,0,0,0,35,35,50,,,,,,,,,,,,,,,,,,1.002060859987978,0.9922068130108528,1.002060859987978,0.3176270929980092,0.28886537003563717,1.319687952985987,0.3506973969633691,0.31848894205177203,1.6703853499493562,0.35104671004228294,0.31813306198455393,2.021432059991639,0.3506859629997052,0.32165646797511727,2.3721180229913443,0.46841615496668965,0.43518531002337113,2.840534177958034,0.3007064069970511,0.2713914579944685,3.141240584955085,0.3823672099970281,0.3538229629630223,3.523607794952113,,,,,,,,,,,,,,,,,,,,,,,,,,f,1,0.8046357950079255,j,1,1.0559209039784037,,,,,,,,,,,,,,,,,,,None,None,,,,,,,,,,8,001,3,2,2018_Oct_04_1120,Dissertation,59.49359316166042,
,,0,,,Verdadero,Falso,f,A,single_right,The boy,0,0,0,1,j,0,310,a,,,,,,,,,,,,,,,,,,,,,,,,,0,0,0,0,0,36,36,69,,,,,,,,,,,,,,,,,,,,,,,,,,,,,,,,,,,,,,,,,,,,,,,,,,,,,,,,,,,,,,,,,,,j,1,0.6379407880012877,None,0,,,,,,,,,,,,,,,,,,,,None,None,,,,,,,,,,8,001,3,2,2018_Oct_04_1120,Dissertation,59.49359316166042,
,,0,,,Verdadero,Falso,j,A,single_left,Ana vació el lavaplatos en la cocina,0,0,0,1,f,0,206,Ana no ayudó con los quehaceres.,,,,,,,,,,,,,,,,,,,,,,,,,0,0,0,0,0,37,37,35,,,,,,,,,,,,,,,,,,0.5679204299813136,0.5574819660396315,0.5679204299813136,0.2340089600184001,0.20482819201424718,0.8019293899997137,0.20003409998025745,0.17166150198318064,1.0019634899799712,0.2509918700088747,0.22184357995865867,1.2529553599888459,0.3003660950344056,0.2679396169842221,1.5533214550232515,0.3336722379899584,0.3055734029621817,1.8869936930132098,0.3012271170155145,0.2678917800076306,2.1882208100287244,,,,,,,,,,,,,,,,,,,,,,,,,,,,,f,1,0.45612749294377863,j,1,1.7093736850074492,,,,,,,,,,,,,,,,,,,None,space,,,,2.3453401789884083,,,,,,8,001,3,2,2018_Oct_04_1120,Dissertation,59.49359316166042,
,,1,,,Verdadero,Falso,f,A,congruent_left,Los autobuses en Madrid tienen más de quince pies de altura ,0,0,0,0,f,0,225,Los autobuses madrileños son muy altos.,,,,,,,,,,,,,,,,,,,,,,,,,0,0,0,0,0,38,38,54,,,,,,,,,,,,,,,,,,0.6358128910069354,0.6275874269776978,0.6358128910069354,0.21543075802037492,0.18614189798245206,0.8512436490273103,0.21812944597331807,0.18712038098601624,1.0693730950006284,0.31858554598875344,0.2884306029882282,1.3879586409893818,0.24983961804537103,0.21996868401765823,1.6377982590347528,0.48489587201038375,0.4558944199816324,2.1226941310451366,0.5347493299632333,0.5057277419837192,2.65744346100837,0.45116420299746096,0.4176348819746636,3.108607664005831,0.33485392498550937,0.30568070500157773,3.4434615889913402,0.3846546350396238,0.3564881029888056,3.828116224030964,0.43316869699629024,0.4043332950095646,4.261284921027254,,,,,,,,,,,,,,,,,f,1,0.6732059349888004,f,1,3.961450323986355,,,,,,,,,,,,,,,,,,,None,None,,,,,,,,,,8,001,3,2,2018_Oct_04_1120,Dissertation,59.49359316166042,
,,0,,,Verdadero,Falso,j,A,incongruent_left,Cuando la artista gritó el cuadro cayó y se rompió,0,1,1,0,f,0,127,La artista no gritó muy fuerte.,,,,,,,,,,,,,,,,,,,,,,,,,0,0,0,0,0,39,39,23,,,,,,,,,,,,,,,,,,0.6844840500270948,0.6772611800115556,0.6844840500270948,0.40121420996729285,0.3715541670098901,1.0856982599943876,0.36651630798587576,0.3386263780412264,1.4522145679802634,0.3851007950142957,0.35568810999393463,1.837315362994559,0.41631844599032775,0.38689073600107804,2.253633808984887,0.41976120899198577,0.39065281802322716,2.6733950179768726,0.3991743760416284,0.36985874705715105,3.072569394018501,0.4694981059874408,0.4392079749959521,3.542067500005942,0.3831550049944781,0.3534442210220732,3.92522250500042,0.3689712900086306,0.3402022609952837,4.2941937950090505,,,,,,,,,,,,,,,,,,,,f,1,0.6898534460342489,j,1,1.5404744510306045,,,,,,,,,,,,,,,,,,,None,None,,,,,,,,,,8,001,3,2,2018_Oct_04_1120,Dissertation,59.49359316166042,
,,0,,,Verdadero,Falso,f,A,incongruent_right,Ignacio puso el queso que sus sobrinos dejaron en el refrigerador después de que comieron,0,1,1,0,j,0,134,Ignacio limpió cuando todos acabaron.,,,,,,,,,,,,,,,,,,,,,,,,,0,0,0,0,0,40,40,26,,,,,,,,,,,,,,,,,,0.8343812149832956,0.8187288779881783,0.8343812149832956,0.29993665701476857,0.2542101750150323,1.1343178719980642,0.6191919049597345,0.5856027900008485,1.7535097769577987,0.6179770450107753,0.5902528239530511,2.371486821968574,0.5510317549924366,0.5203960660146549,2.9225185769610107,0.7024488900206052,0.6720605820300989,3.624967466981616,0.568836944992654,0.5391872249892913,4.19380441197427,0.567500765027944,0.5407079489668831,4.761305177002214,0.5350061599747278,0.5057643100153655,5.296311336976942,0.334689203009475,0.3010460769874044,5.631000539986417,0.25027468998450786,0.22376022301614285,5.881275229970925,0.4683628220227547,0.438956027966924,6.349638051993679,0.4835801579756662,0.45550768997054547,6.8332182099693455,,,,0.3518038400216028,0.3226068529766053,7.185022049990948,,,,,j,1,0.6734498669975437,f,1,2.791165055008605,,,,0.34940523200202733,0.3194957100204192,7.534427281992976,,,,,,,,,,,,,None,None,,,,,,,,,,8,001,3,2,2018_Oct_04_1120,Dissertation,59.49359316166042,
,,0,,,Verdadero,Falso,f,A,incongruent_right,Cuando Dora salió la comida se le quedó en el horno quemándose,0,1,1,0,j,0,130,Dora salió despistada.,,,,,,,,,,,,,,,,,,,,,,,,,0,0,0,0,0,41,41,24,,,,,,,,,,,,,,,,,,0.6000291869859211,0.5873490669764578,0.6000291869859211,0.26794663799228147,0.23895406199153513,0.8679758249782026,1.7378791500232182,1.7094408949487843,2.605854975001421,0.4508575249928981,0.4219822830054909,3.056712499994319,0.3515934700262733,0.32345260301372036,3.408305970020592,0.26613478595390916,0.2205428080051206,3.6744407559745014,0.6347030140459538,0.6061807349906303,4.309143770020455,0.6018804279738106,0.5718804959906265,4.911024197994266,0.7182386689819396,0.688751804002095,5.629262866976205,0.35213946300791577,0.32289468101225793,5.981402329984121,0.3335136250243522,0.3047685250057839,6.314915955008473,0.31926198001019657,0.28942003299016505,6.63417793501867,,,,,,,,,,,,,,j,1,0.6235441919998266,f,1,4.6992280559497885,,,,,,,,,,,,,,,,,,,None,None,,,,,,,,,,8,001,3,2,2018_Oct_04_1120,Dissertation,59.49359316166042,
,,0,,,Verdadero,Falso,j,A,incongruent_right,Los artistas van a donar tres estatuas a la ciudad,0,0,1,0,j,0,203,La ciudad va a comprar las estatuas.,,,,,,,,,,,,,,,,,,,,,,,,,0,0,0,0,0,42,42,32,,,,,,,,,,,,,,,,,,0.5669149580062367,0.5542654119781218,0.5669149580062367,0.2679073190083727,0.24015788797987625,0.8348222770146094,0.2665215849992819,0.23790114995790645,1.1013438620138913,0.2686179829761386,0.23891165299573913,1.36996184499003,0.4677150499774143,0.4423248880193569,1.8376768949674442,0.31775094504700974,0.2890203919960186,2.155427840014454,0.46715690998826176,0.4392701900214888,2.6225847500027157,0.45192989497445524,0.4223730569938198,3.074514644977171,0.3496949649997987,0.3215562049881555,3.4242096099769697,0.30152226699283347,0.2715956129832193,3.725731876969803,,,,,,,,,,,,,,,,,,,,j,1,0.4683951319893822,j,1,2.2566570219933055,,,,,,,,,,,,,,,,,,,None,None,,,,,,,,,,8,001,3,2,2018_Oct_04_1120,Dissertation,59.49359316166042,
,,1,,,Verdadero,Falso,f,A,congruent_left,Justo después de bajarme el autobús falló de repente ,0,0,0,0,f,0,213,Deben mandar el autobús al mecánico.,,,,,,,,,,,,,,,,,,,,,,,,,0,0,0,0,0,43,43,42,,,,,,,,,,,,,,,,,,0.5678351849783212,0.5519930149894208,0.5678351849783212,0.2338370800134726,0.2061303699738346,0.8016722649917938,0.3845247779972851,0.35238885798025876,1.186197042989079,0.367660749994684,0.3359457979677245,1.553857792983763,0.4339919919730164,0.405876157048624,1.9878497849567793,0.7521998150041327,0.7238333130371757,2.740049599960912,0.6508220260147937,0.6208422210183926,3.3908716259757057,0.4181238320306875,0.3884060470154509,3.808995458006393,0.4508676209952682,0.42179662600392476,4.259863079001661,,,,,,,,,,,,,,,,,,,,,,,f,1,1.0225490339798853,f,1,2.711734553973656,,,,,,,,,,,,,,,,,,,None,None,,,,,,,,,,8,001,3,2,2018_Oct_04_1120,Dissertation,59.49359316166042,
,,1,,,Verdadero,Falso,f,A,congruent_left,The boy,0,0,0,0,f,0,307,a,,,,,,,,,,,,,,,,,,,,,,,,,0,0,0,0,0,44,44,66,,,,,,,,,,,,,,,,,,,,,,,,,,,,,,,,,,,,,,,,,,,,,,,,,,,,,,,,,,,,,,,,,,,f,1,0.40572673495626077,None,0,,,,,,,,,,,,,,,,,,,,None,None,,,,,,,,,,8,001,3,2,2018_Oct_04_1120,Dissertation,59.49359316166042,
,,1,,,Verdadero,Falso,j,A,congruent_right,La señora insertó la tarjeta que su pareja le dejó en su cartera en la máquina para pagar,1,1,0,0,j,0,19,La mujer puso la tarjeta en su cartera.,,,,,,,,,,,,,,,,,,,,,,,,,0,0,0,0,0,45,45,18,,,,,,,,,,,,,,,,,,0.5668917920556851,0.5454832470277324,0.5668917920556851,0.23461065796436742,0.20475051499670371,0.8015024500200525,0.23385160003090277,0.20552231196779758,1.0353540500509553,0.30031155195320025,0.27064309298293665,1.3356656020041555,0.6850835380028002,0.6555678650038317,2.0207491400069557,0.4008623320260085,0.37120648700511083,2.4216114720329642,0.43585336999967694,0.40537863498320803,2.857464842032641,0.3506517930072732,0.30492122197756544,3.2081166350399144,0.2498911769944243,0.22168269503163174,3.4580078120343387,0.2671731549780816,0.23772452701814473,3.7251809670124203,0.3347184400190599,0.3045580030302517,4.05989940703148,0.3844925930025056,0.3519511350314133,4.444392000033986,0.3505710620083846,0.3216080670244992,4.79496306204237,,,,0.3678918979712762,0.339088395005092,5.162854960013647,,,,,j,1,0.5059261330170557,j,1,2.8786384349805303,,,,0.38387312000850216,0.3504795919870958,5.546728080022149,0.41767222998896614,0.3881413400522433,5.964400310011115,0.3517926000058651,0.32193139498122036,6.31619291001698,0.36790051200659946,0.33925652800826356,6.6840934220235795,,,,None,None,,,,,,,,,,8,001,3,2,2018_Oct_04_1120,Dissertation,59.49359316166042,
,,1,,,Verdadero,Falso,j,A,congruent_right,María acomodó las revistas que Gabriela dejó bajo la cama en el librero cuando las encontró,1,1,0,0,j,0,15,Las revistas de Gabriela están escondidas bajo la cama.,,,,,,,,,,,,,,,,,,,,,,,,,0,0,0,0,0,46,46,14,,,,,,,,,,,,,,,,,,0.6344380300142802,0.618388656002935,0.6344380300142802,0.21712241001660004,0.1889032559702173,0.8515604400308803,0.2333965469733812,0.20536590996198356,1.0849569870042615,0.25050589302554727,0.2218458449933678,1.3354628800298087,0.38524162996327505,0.35588958201697096,1.7207045099930838,0.6679519070312381,0.6388203999958932,2.388656417024322,0.7352249749819748,0.7088844520039856,3.1238813920062967,0.5853381580091082,0.5559747279621661,3.709219550015405,0.3677641099784523,0.338946242001839,4.076983659993857,0.33416674204636365,0.3066041599959135,4.411150402040221,0.30022926995297894,0.2723137729917653,4.7113796719932,0.33450151002034545,0.3048103170003742,5.045881182013545,0.35050729499198496,0.3223161720088683,5.39638847700553,,,,0.45110990799730644,0.4222885799827054,5.847498385002837,,,,,j,1,0.6398070299765095,f,0,2.661139483039733,,,,1.8391334949992597,1.8095345419715159,7.686631880002096,0.4169976420234889,0.38861503498628736,8.103629522025585,,,,,,,,,,None,None,,,,,,,,,,8,001,3,2,2018_Oct_04_1120,Dissertation,59.49359316166042,
,,1,,,Verdadero,Falso,j,A,congruent_left,Cuando los jardineros terminaron el jardín quedó lleno de flores,1,1,0,0,f,0,10,Los jardineros todavía no acaban su trabajo.,,,,,,,,,,,,,,,,,,,,,,,,,0,0,0,0,0,47,47,9,,,,,,,,,,,,,,,,,,0.5849149349960499,0.5732947940123267,0.5849149349960499,0.34995258500566706,0.32172188197728246,0.9348675200017169,0.26769881998188794,0.2379060800303705,1.2025663399836048,0.41736460803076625,0.38970964297186583,1.619930948014371,0.7690397249534726,0.7346420979592949,2.3889706729678437,0.5689839400001802,0.5398913899553008,2.957954612968024,0.7182138570351526,0.6863683530245908,3.6761684700031765,0.4680134980008006,0.4390061229933053,4.144181968003977,0.333723931980785,0.3055692730122246,4.477905899984762,0.35024721798254177,0.32135278498753905,4.828153117967304,,,,,,,,,,,,,,,,,,,,f,1,0.7230821949779056,j,1,3.731361808022484,,,,,,,,,,,,,,,,,,,None,None,,,,,,,,,,8,001,3,2,2018_Oct_04_1120,Dissertation,59.49359316166042,
,,0,,,Verdadero,Falso,f,A,single_left,Mi padre me partió el sándwich en dos para llevarlo a clase,0,0,0,1,f,0,222,Me compré la comida en la escuela. ,,,,,,,,,,,,,,,,,,,,,,,,,0,0,0,0,0,48,48,51,,,,,,,,,,,,,,,,,,1.0688131930073723,1.0513183019938879,1.0688131930073723,0.3011238650069572,0.27151949499966577,1.3699370580143295,0.4668786399997771,0.43912588100647554,1.8368156980141066,0.40183699200861156,0.37184991798130795,2.238652690022718,0.6009534730110317,0.5714737999951467,2.83960616303375,1.3045375950168818,1.2763106090133078,4.144143758050632,0.350910221983213,0.32240105501841754,4.495053980033845,0.9525996400043368,0.9241999529767781,5.4476536200381815,0.6180851449607871,0.5890641700243577,6.065738764998969,0.4012652300298214,0.37237867998192087,6.46700399502879,0.6678339900099672,0.6396563280140981,7.134837985038757,0.5184965080115944,0.4854250350035727,7.653334493050352,,,,,,,,,,,,,,f,1,0.8911407780251466,j,0,2.1275757600087672,,,,,,,,,,,,,,,,,,,None,None,,,,,,,,,,8,001,3,2,2018_Oct_04_1120,Dissertation,59.49359316166042,
,,1,,,Verdadero,Falso,j,A,congruent_left,Después de que limpiaron la casa brillaba por todas partes,1,1,0,0,f,0,2,Todavía tienen que limpiar la sala.,,,,,,,,,,,,,,,,,,,,,,,,,0,0,0,0,0,49,49,1,,,,,,,,,,,,,,,,,,0.668297714961227,0.6568480610148981,0.668297714961227,0.2668541400344111,0.23806746199261397,0.9351518549956381,0.28396944497944787,0.2548817429924384,1.219121299975086,0.2504423650098033,0.22113874700153247,1.4695636649848893,0.23432697501266375,0.20453167503001168,1.703890639997553,0.4346574619994499,0.4059333869954571,2.138548101997003,0.36764669296098873,0.33906451996881515,2.5061947949579917,0.3342923700110987,0.3014916150132194,2.8404871649690904,0.38403514702804387,0.355088424985297,3.2245223119971342,0.367699347960297,0.3391070020152256,3.5922216599574313,,,,,,,,,,,,,,,,,,,,f,1,1.3567150250310078,j,1,2.0936393899610266,,,,,,,,,,,,,,,,,,,None,None,,,,,,,,,,8,001,3,2,2018_Oct_04_1120,Dissertation,59.49359316166042,
,,0,,,Verdadero,Falso,j,A,single_right,Cuando usó mi carro Jorge lo aparcó muy mal,0,0,0,1,j,0,212,No le presto mi carro a nadie.,,,,,,,,,,,,,,,,,,,,,,,,,0,0,0,0,0,50,50,41,,,,,,,,,,,,,,,,,,0.5158413499593735,0.5055645820102654,0.5158413499593735,0.2511952930362895,0.2181238399934955,0.767036642995663,0.18370561697520316,0.17006096802651882,0.9507422599708661,0.21755936002591625,0.1880118969711475,1.1683016199967824,0.23320959997363389,0.20001433795550838,1.4015112199704163,0.5354748099925928,0.5016419020248577,1.936986029963009,0.3012876150314696,0.2715411349781789,2.2382736449944787,0.3843144529964775,0.35525056498590857,2.622588097990956,0.4011967969709076,0.3724201649893075,3.0237848949618638,,,,,,,,,,,,,,,,,,,,,,,j,1,0.7018920250120573,j,1,2.0102857900201343,,,,,,,,,,,,,,,,,,,None,None,,,,,,,,,,8,001,3,2,2018_Oct_04_1120,Dissertation,59.49359316166042,
,,1,,,Verdadero,Falso,j,A,congruent_left,Mi mamá guardó la escultura que hizo en la clase en su mesa de trabajo,1,1,0,0,f,0,14,La escultura está en mi estudio de arte.,,,,,,,,,,,,,,,,,,,,,,,,,0,0,0,0,0,51,51,13,,,,,,,,,,,,,,,,,,0.5165918719721958,0.5048705150256865,0.5165918719721958,0.1844327500439249,0.15492759499466047,0.7010246220161207,0.26677630498306826,0.23379881499568,0.967800926999189,0.3513484650175087,0.32150567998178303,1.3191493920166977,0.45173217996489257,0.4229659429984167,1.7708815719815902,0.41752057801932096,0.3847573830280453,2.188402150000911,0.8020864570280537,0.7699977949960157,2.990488607028965,0.8853597879642621,0.8568342250073329,3.875848394993227,0.38480379700195044,0.3518843150231987,4.260652191995177,0.2997439000173472,0.2722278470173478,4.560396092012525,0.3684263000031933,0.33912221499485895,4.928822392015718,0.3342364049749449,0.304956182022579,5.263058796990663,0.3504318399936892,0.32179827702930197,5.613490636984352,,,,0.26781336503336206,0.2381838450091891,5.881304002017714,,,,,f,1,0.6059768130071461,f,0,3.9317345219897106,,,,0.3174662750097923,0.288203185016755,6.198770277027506,,,,,,,,,,,,,None,None,,,,,,,,,,8,001,3,2,2018_Oct_04_1120,Dissertation,59.49359316166042,
,,0,,,Verdadero,Falso,f,A,incongruent_right,Después de que la arquitecta renunció los planos cambiaron mucho,0,1,1,0,j,0,122,El diseño final no era de la arquitecta.,,,,,,,,,,,,,,,,,,,,,,,,,0,0,0,0,0,52,52,20,,,,,,,,,,,,,,,,,,0.9012951819458976,0.888209798024036,0.9012951819458976,0.2677126449998468,0.23830284003634006,1.1690078269457445,0.5343176430324093,0.5045732849976048,1.7033254699781537,0.2509895219700411,0.21729082299862057,1.9543149919481948,0.4854766450007446,0.45204769499832764,2.4397916369489394,0.28387899504741654,0.2549267080030404,2.723670631996356,0.4167022329638712,0.3876857029972598,3.140372864960227,0.3016876250039786,0.2681421280140057,3.4420604899642058,0.2001800470170565,0.17147294199094176,3.6422405369812623,0.38345526496414095,0.35269669798435643,4.025695801945403,,,,,,,,,,,,,,,,,,,,j,1,0.46793662005802616,f,1,2.1440108030219562,,,,,,,,,,,,,,,,,,,None,None,,,,,,,,,,8,001,3,2,2018_Oct_04_1120,Dissertation,59.49359316166042,
,,0,,,Verdadero,Falso,f,A,incongruent_right,Los pintores colocaron el cuadro que su colega dejó en la oficina privada antes de su exhibición,0,1,1,0,j,0,138,Los pintores solo querían sus propias obras en la exhbición.,,,,,,,,,,,,,,,,,,,,,,,,,0,0,0,0,0,53,53,28,,,,,,,,,,,,,,,,,,0.667674980009906,0.6514838070143014,0.667674980009906,0.19990733201848343,0.1711932959733531,0.8675823120283894,0.25076862797141075,0.22186153504299,1.1183509399998002,0.266903332027141,0.23870861704926938,1.3852542720269412,0.3682010979973711,0.3218606029986404,1.7534553700243123,0.4013653249712661,0.37278845498804003,2.1548206949955784,0.56712935998803,0.5374482430052012,2.7219500549836084,0.5025432800175622,0.47345716203562915,3.2244933350011706,0.3835055219824426,0.35435745801078156,3.6079988569836132,0.752827373042237,0.7231565650436096,4.36082623002585,0.4673913070000708,0.43915348703740165,4.828217537025921,0.3351687729591504,0.30562675005057827,5.163386309985071,0.33374649699544534,0.3051372399786487,5.497132806980517,,,,0.35037479002494365,0.32128366001416,5.84750759700546,,,,,j,1,0.5235353820025921,f,1,3.7654985670233145,,,,0.3178225699812174,0.28894890000810847,6.165330166986678,0.31736657803412527,0.2882654020213522,6.482696745020803,0.3013794099679217,0.2718491629930213,6.784076154988725,,,,,,,None,None,,,,,,,,,,8,001,3,2,2018_Oct_04_1120,Dissertation,59.49359316166042,
,,1,,,Verdadero,Falso,f,A,congruent_left,El pescado está listo para comer,0,0,0,0,f,0,229,Vamos a comer pescado.,,,,,,,,,,,,,,,,,,,,,,,,,0,0,0,0,0,54,54,58,,,,,,,,,,,,,,,,,,0.6006585049908608,0.5916717850486748,0.6006585049908608,0.19950374105246738,0.16983447497477755,0.8001622460433282,0.21708266698988155,0.18774367903824896,1.0172449130332097,0.21745061100227758,0.18761436303611845,1.2346955240354873,0.3009416270069778,0.26995521498611197,1.5356371510424651,0.25112179399002343,0.22289589699357748,1.7867589450324886,,,,,,,,,,,,,,,,,,,,,,,,,,,,,,,,f,1,0.3682101549929939,f,1,1.325044802040793,,,,,,,,,,,,,,,,,,,None,None,,,,,,,,,,8,001,3,2,2018_Oct_04_1120,Dissertation,59.49359316166042,
,,1,,,Verdadero,Falso,j,A,congruent_right,El pastel en el refrigerador es para el cumpleaños de Tomás,0,0,0,0,j,0,207,Tomás no cumple años pronto.,,,,,,,,,,,,,,,,,,,,,,,,,0,0,0,0,0,55,55,36,,,,,,,,,,,,,,,,,,0.6509828980197199,0.6353579969727434,0.6509828980197199,0.08261708996724337,0.05420494300778955,0.7335999879869632,0.4177903520176187,0.38815645704744384,1.151390340004582,0.3352539450279437,0.30286010197596624,1.4866442850325257,0.2841758150025271,0.25473170704208314,1.7708201000350527,0.31714647996705025,0.2878060349612497,2.087966580002103,0.34983746602665633,0.3191005550324917,2.4378040460287593,0.41918629698920995,0.3855137850041501,2.8569903430179693,0.384209114999976,0.351797498005908,3.2411994580179453,0.38438832201063633,0.35116126004140824,3.6255877800285816,0.5009890850051306,0.4717231579707004,4.126576865033712,,,,,,,,,,,,,,,,,j,1,0.6374172680079937,j,1,1.642106804996729,,,,,,,,,,,,,,,,,,,None,None,,,,,,,,,,8,001,3,2,2018_Oct_04_1120,Dissertation,59.49359316166042,
,,1,,,Verdadero,Falso,f,A,congruent_right,The boy,0,0,0,0,j,0,312,a,,,,,,,,,,,,,,,,,,,,,,,,,0,0,0,0,0,56,56,71,,,,,,,,,,,,,,,,,,,,,,,,,,,,,,,,,,,,,,,,,,,,,,,,,,,,,,,,,,,,,,,,,,,f,0,0.635858605033718,None,0,,,,,,,,,,,,,,,,,,,,None,None,,,,,,,,,,8,001,3,2,2018_Oct_04_1120,Dissertation,59.49359316166042,
,,0,,,Verdadero,Falso,f,A,incongruent_right,El mecánico arregló el carro rápido,0,0,1,0,j,0,227,El mécanico trabaja de una manera eficiente.,,,,,,,,,,,,,,,,,,,,,,,,,0,0,0,0,0,57,57,56,,,,,,,,,,,,,,,,,,0.8171037150314078,0.8082942189648747,0.8171037150314078,0.3346200149971992,0.30414384498726577,1.151723730028607,0.4519398129777983,0.4193464579875581,1.6036635430064052,0.6015543620451353,0.5696254229987971,2.2052179050515406,1.0684334429679438,1.0376016959780827,3.2736513480194844,0.3674557449994609,0.3368625099537894,3.6411070930189453,,,,,,,,,,,,,,,,,,,,,,,,,,,,,,,,j,1,0.7373911829781719,f,1,2.1596663069794886,,,,,,,,,,,,,,,,,,,None,None,,,,,,,,,,8,001,3,2,2018_Oct_04_1120,Dissertation,59.49359316166042,
,,0,,,Verdadero,Falso,f,A,incongruent_right,The boy,0,0,1,0,j,0,315,a,,,,,,,,,,,,,,,,,,,,,,,,,0,0,0,0,0,58,58,74,,,,,,,,,,,,,,,,,,,,,,,,,,,,,,,,,,,,,,,,,,,,,,,,,,,,,,,,,,,,,,,,,,,j,1,0.4911956079886295,None,0,,,,,,,,,,,,,,,,,,,,None,None,,,,,,,,,,8,001,3,2,2018_Oct_04_1120,Dissertation,59.49359316166042,
,,1,,,Verdadero,Falso,f,A,congruent_right,El reloj de mi mamá tiene diamantes pero le queda muy bien,0,0,0,0,j,0,223,Mi madre tiene un reloj bonito.,,,,,,,,,,,,,,,,,,,,,,,,,0,0,0,0,0,59,59,52,,,,,,,,,,,,,,,,,,0.5845043570152484,0.5638680949923582,0.5845043570152484,0.21747317002154887,0.18771158496383578,0.8019775270367973,0.20012428500922397,0.17088905296986923,1.0021018120460212,0.18327957298606634,0.1535563649958931,1.1853813850320876,0.3523298120126128,0.3225184070179239,1.5377111970447004,0.28331048996187747,0.23857446003239602,1.8210216870065778,0.3680287550087087,0.3385602220077999,2.1890504420152865,0.7518854250083677,0.7234295679954812,2.9409358670236543,0.35089787299511954,0.3218693469534628,3.291833740018774,0.3005150710232556,0.27042925800196826,3.5923488110420294,0.2504717310075648,0.22155556600773707,3.8428205420495942,0.31671616598032415,0.28377814998384565,4.159536708029918,,,,,,,,,,,,,,j,1,0.40514142002211884,f,1,1.8103445849847049,,,,,,,,,,,,,,,,,,,None,None,,,,,,,,,,8,001,3,2,2018_Oct_04_1120,Dissertation,59.49359316166042,
,,1,,,Verdadero,Falso,j,A,congruent_right,Paco dejó los pantalones que compró en la tienda en su cuarto cuando volvió,1,1,0,0,j,0,11,A Paco los pantalones se le quedaron en la tienda.,,,,,,,,,,,,,,,,,,,,,,,,,0,0,0,0,0,60,60,10,,,,,,,,,,,,,,,,,,0.7512823800207116,0.7370767800020985,0.7512823800207116,0.2505394699983299,0.22152500500669703,1.0018218500190414,0.20045025000581518,0.17089206801028922,1.2022721000248566,0.5015223000082187,0.47156207996886224,1.7037944000330754,0.6175730479881167,0.5885349370073527,2.321367448021192,0.5184713209746405,0.4872112150187604,2.8398387689958327,4.278739284025505,4.245459327998105,7.118578053021338,0.50113687699195,0.4728142700041644,7.619714930013288,0.2506542729679495,0.2219890530104749,7.870369202981237,0.31728786701569334,0.2886479700100608,8.18765706999693,0.30045694299042225,0.2719188149785623,8.488114012987353,0.28414541500387713,0.25458219001302496,8.77225942799123,0.35156945703784004,0.32308745000045747,9.12382888502907,,,,0.468214683001861,0.438906355004292,9.592043568030931,,,,,j,1,0.622395372018218,j,1,4.95103284297511,,,,,,,,,,,,,,,,,,,None,None,,,,,,,,,,8,001,3,2,2018_Oct_04_1120,Dissertation,59.49359316166042,
,,0,,,Verdadero,Falso,j,A,single_right,Cuando Dora ganó la lotería se compró un reloj de diamantes,0,0,0,1,j,0,216,Dora ahorró todo el dinero que ganó. ,,,,,,,,,,,,,,,,,,,,,,,,,0,0,0,0,0,61,61,45,,,,,,,,,,,,,,,,,,0.6000574019853957,0.5884742750204168,0.6000574019853957,0.6019941400154494,0.573037474998273,1.202051542000845,0.6186896949657239,0.5903811369789764,1.820741236966569,0.26741740299621597,0.23835980700096115,2.088158639962785,0.401036762050353,0.3726457200245932,2.489195402013138,0.31690427497960627,0.28772266302257776,2.806099676992744,0.35070603498024866,0.32070234202547,3.156805711972993,0.5190310699981637,0.4893976949970238,3.6758367819711566,0.3993701750296168,0.367666618025396,4.075206957000773,0.26889325299998745,0.2347129350528121,4.344100210000761,0.28421568498015404,0.2555409630294889,4.628315894980915,,,,,,,,,,,,,,,,,j,1,0.4211950969765894,j,1,1.641593290027231,,,,,,,,,,,,,,,,,,,None,None,,,,,,,,,,8,001,3,2,2018_Oct_04_1120,Dissertation,59.49359316166042,
,,0,,,Verdadero,Falso,f,A,incongruent_right,Cuando mi madre lavaba la ropa quedaba muy limpia,1,1,1,0,j,1,8,Mi madre me ayuda con el lavado de ropa.,,,,,,,,,,,,,,,,,,,,,,,,,0,0,0,0,0,62,62,7,,,,,,,,,,,,,,,,,,0.6002991699497215,0.5900200310279615,0.6002991699497215,0.2686873220372945,0.2382243699976243,0.868986491987016,0.26721203996567056,0.2384511249838397,1.1361985319526866,0.25023574801161885,0.22272968001198024,1.3864342799643055,0.26767085201572627,0.23817805701401085,1.6541051319800317,0.28381714498391375,0.25478515500435606,1.9379222769639455,0.28427816001931205,0.2548348649870604,2.2222004369832575,0.3006788099883124,0.26771499298047274,2.52287924697157,0.30073472298681736,0.2723523569875397,2.8236139699583873,,,,,,,,,,,,,,,,,,,,,,,j,1,0.506435165007133,j,0,1.5420475479913875,,,,,,,,,,,,,,,,,,,None,None,,,,,,,,,,8,001,3,2,2018_Oct_04_1120,Dissertation,59.49359316166042,
,,0,,,Verdadero,Falso,f,A,incongruent_left,Antes de que bebieran el vino se volvió vinagre ,1,1,1,0,f,1,5,No tomaron vino porque se había echado a perder.,,,,,,,,,,,,,,,,,,,,,,,,,0,0,0,0,0,63,63,4,,,,,,,,,,,,,,,,,,0.6836444530053996,0.6718797219800763,0.6836444530053996,0.25148862501373515,0.22319182398496196,0.9351330780191347,0.25020112498896196,0.22184261301299557,1.1853342030080967,0.25008497200906277,0.22066376003203914,1.4354191750171594,0.3349098979961127,0.3051044950261712,1.7703290730132721,0.5519524649716914,0.5232987400377169,2.3222815379849635,1.0694800320197828,1.0360187700134702,3.3917615700047463,0.40109395497711375,0.3722186000086367,3.79285552498186,0.43446592800319195,0.40539575199363753,4.227321452985052,,,,,,,,,,,,,,,,,,,,,,,f,1,1.1040729859960265,f,1,4.618512728018686,,,,,,,,,,,,,,,,,,,None,None,,,,,,,,,,8,001,3,2,2018_Oct_04_1120,Dissertation,59.49359316166042,
,,1,,,Verdadero,Falso,f,A,congruent_right,Mi hija pintó el cuadro que está en la pared de mi oficina,0,0,0,0,j,0,219,Tengo arte colgado en mi oficina.,,,,,,,,,,,,,,,,,,,,,,,,,0,0,0,0,0,64,64,48,,,,,,,,,,,,,,,,,,0.8178269700147212,0.8049114470486529,0.8178269700147212,0.3013387629762292,0.271805280004628,1.1191657329909503,0.3165263819973916,0.28791995003120974,1.435692114988342,0.5343477299902588,0.504757505026646,1.9700398449786007,0.3013693829998374,0.27132406196324155,2.271409227978438,0.23464704700745642,0.20705702499253675,2.5060562749858946,0.2330410630092956,0.20525133004412055,2.73909733799519,0.23381504701683298,0.20404269197024405,2.972912385012023,0.3225581629667431,0.29068514599930495,3.2954705479787663,0.24582279502646998,0.21718397899530828,3.5412933430052362,0.21753956197062507,0.18381941498955712,3.7588329049758613,0.3008544300100766,0.2710268559749238,4.059687334985938,0.23359809501562268,0.20464047702262178,4.293285430001561,,,,,,,,,,,j,1,0.5884306979714893,f,1,1.9261025949963368,,,,,,,,,,,,,,,,,,,None,None,,,,,,,,,,8,001,3,2,2018_Oct_04_1120,Dissertation,59.49359316166042,
,,1,,,Verdadero,Falso,f,A,congruent_left,Jimena duerme bien en la cama en su cuarto,0,0,0,0,f,0,205,La cama de Jimena es cómoda.,,,,,,,,,,,,,,,,,,,,,,,,,0,0,0,0,0,65,65,34,,,,,,,,,,,,,,,,,,0.5505214249715209,0.5358886599424295,0.5505214249715209,0.16761453001527116,0.13784282305277884,0.7181359549867921,0.1828504300210625,0.15427939203800634,0.9009863850078546,0.21782595297554508,0.1882591180037707,1.1188123379833996,0.38415313698351383,0.35510109196184203,1.5029654749669135,0.4685008480446413,0.4352393120061606,1.9714663230115548,0.5013847349910066,0.4681332299951464,2.4728510580025613,0.6513670099666342,0.6226962500368245,3.1242180679691955,0.5686092450050637,0.5366103549604304,3.6928273129742593,,,,,,,,,,,,,,,,,,,,,,,f,1,0.45488751702941954,f,1,1.4881645440473221,,,,,,,,,,,,,,,,,,,None,None,,,,,,,,,,8,001,3,2,2018_Oct_04_1120,Dissertation,59.49359316166042,
,,0,,,Verdadero,Falso,j,A,incongruent_left,El arquitecto puso los documentos que sus compañeros le dejaron encima de la mesa para verlos bien,0,1,1,0,f,0,135,El arquitecto no revisó los documentos.,,,,,,,,,,,,,,,,,,,,,,,,,0,0,0,0,0,66,66,27,,,,,,,,,,,,,,,,,,0.9523836380103603,0.9351176330237649,0.9523836380103603,0.36706469202181324,0.337869779963512,1.3194483300321735,0.26819588302168995,0.23825481801759452,1.5876442130538635,0.316938231990207,0.2886005030013621,1.9045824450440705,0.2835300579899922,0.2544044349924661,2.1881125030340627,0.3176171149825677,0.28771339199738577,2.5057296180166304,0.31778046203544363,0.2882777519989759,2.823510080052074,0.3849297249689698,0.33865267504006624,3.208439805021044,0.34988151298603043,0.32103049202123657,3.5583213180070743,0.35211940004955977,0.3222512700012885,3.910440718056634,0.38406896498054266,0.3389259800314903,4.294509683037177,0.31752695702016354,0.28924488701159135,4.61203664005734,0.31762058997992426,0.28873651497997344,4.9296572300372645,,,,0.3007686350028962,0.271668424946256,5.230425865040161,,,,,f,1,0.6231335939955898,j,1,1.9227795400074683,,,,0.33410753996577114,0.3048721199738793,5.564533405005932,0.26799050002591684,0.23910094000166282,5.832523905031849,0.3172359750024043,0.2891068900353275,6.149759880034253,,,,,,,None,None,,,,,,,,,,8,001,3,2,2018_Oct_04_1120,Dissertation,59.49359316166042,
,,1,,,Verdadero,Falso,f,A,congruent_left,La computadora de Jessica falla con frecuencia,0,0,0,0,f,0,217,Jessica necesita consultar con un técnico.,,,,,,,,,,,,,,,,,,,,,,,,,0,0,0,0,0,67,67,46,,,,,,,,,,,,,,,,,,0.7010585949756205,0.6900827669887803,0.7010585949756205,0.3338777549797669,0.3053799170302227,1.0349363499553874,0.3000517950276844,0.27120708499569446,1.3349881449830718,0.3181263579754159,0.28869856998790056,1.6531145029584877,0.267369065026287,0.23873852804536,1.9204835679847747,0.35135692200856283,0.3215835499577224,2.2718404899933375,0.5844853550079279,0.5553965020226315,2.8563258450012654,,,,,,,,,,,,,,,,,,,,,,,,,,,,,f,1,0.7229900119709782,f,1,1.357475031982176,,,,,,,,,,,,,,,,,,,None,None,,,,,,,,,,8,001,3,2,2018_Oct_04_1120,Dissertation,59.49359316166042,
,,0,,,Verdadero,Falso,j,A,incongruent_left,Mis amigas se reunieron en la escuela para ir a jugar fútbol,0,0,1,0,f,0,209,Jugaron béisbol mis amigas.  ,,,,,,,,,,,,,,,,,,,,,,,,,0,0,0,0,0,68,68,38,,,,,,,,,,,,,,,,,,0.751184104999993,0.7396077970042825,0.751184104999993,0.2833165899501182,0.25066706200595945,1.0345006949501112,0.28428294003242627,0.25467713800026104,1.3187836349825375,0.35105462500359863,0.32200933201238513,1.669838259986136,0.35124161501880735,0.32200982997892424,2.0210798750049435,1.1865592829999514,1.1587020669830963,3.207639158004895,0.6021359449950978,0.5692832249915227,3.8097751029999927,0.6509259199956432,0.6222394700162113,4.460701022995636,2.5571706519695,2.5288393179653212,7.017871674965136,0.35095613298472017,0.32254267000826076,7.368827807949856,0.25052369001787156,0.22148019500309601,7.6193514979677275,0.2674175350111909,0.23905271798139438,7.886769032978918,,,,,,,,,,,,,,f,1,0.5728283899952658,j,1,1.40404315298656,,,,,,,,,,,,,,,,,,,None,None,,,,,,,,,,8,001,3,2,2018_Oct_04_1120,Dissertation,59.49359316166042,
,,0,,,Verdadero,Falso,j,A,incongruent_right,Después de lavar la ropa Antonio prepara la cena,0,0,1,0,j,0,215,Antonio hace varios deberes por la noche.,,,,,,,,,,,,,,,,,,,,,,,,,0,0,0,0,0,69,69,44,,,,,,,,,,,,,,,,,,0.5676529600168578,0.5496247570263222,0.5676529600168578,0.20056973298778757,0.17066985002020374,0.7682226930046454,0.1841861570137553,0.15441921999445185,0.9524088500184007,0.2664154840167612,0.23556207999354228,1.2188243340351619,0.3177844010060653,0.2870213810238056,1.5366087350412272,0.23418192396638915,0.20489339000778273,1.7707906590076163,0.26663414598442614,0.23412763798842207,2.0374248049920425,0.48413912404794246,0.46994279796490446,2.521563929039985,0.38587281899526715,0.35532977001275867,2.907436748035252,,,,,,,,,,,,,,,,,,,,,,,j,1,0.5350458759930916,f,0,1.7434343789936975,,,,,,,,,,,,,,,,,,,None,None,,,,,,,,,,8,001,3,2,2018_Oct_04_1120,Dissertation,59.49359316166042,
,,0,,,Verdadero,Falso,f,A,incongruent_right,Elena colocó la tarea que la Sra. Sánchez le dejó encima de su mesa en su cuaderno sin mirar la nota,1,1,1,0,j,1,16,A Elena no le importó su nota.,,,,,,,,,,,,,,,,,,,,,,,,,0,0,0,0,0,70,70,15,,,,,,,,,,,,,,,,,,2.722886115021538,2.706189531018026,2.722886115021538,0.23445170698687434,0.2009940730058588,2.9573378220084123,0.26747414498822764,0.2389729249989614,3.22481196699664,0.26736508501926437,0.23522564297309145,3.4921770520159043,0.2506186999962665,0.2221780780237168,3.742795752012171,0.3167811200255528,0.2891989540075883,4.059576872037724,0.38494145998265594,0.3553980300202966,4.44451833202038,0.28390238498104736,0.25470892194425687,4.728420717001427,0.45175630500307307,0.41867179999826476,5.1801770220045,0.31760559999383986,0.28862594795646146,5.49778262199834,0.3168095950386487,0.2884924600366503,5.814592217036989,0.36786569497780874,0.3346621899981983,6.182457912014797,0.4182874350226484,0.38894590496784076,6.600745347037446,,,,0.3504371629678644,0.32231143495300785,6.95118251000531,,,,,j,1,0.506200561998412,f,1,1.5424166650045663,,,,0.6014941150206141,0.5728700999752618,7.552676625025924,0.50106139696436,0.4720770270214416,8.053738021990284,0.31668666104087606,0.2841263970476575,8.37042468303116,0.21813459700206295,0.189398737042211,8.588559280033223,0.3179713849676773,0.2896464189980179,8.9065306650009,None,None,0.2505846000276506,0.22259659500559792,9.157115265028551,,0.33424764999654144,0.3054162049666047,9.491362915025093,,,8,001,3,2,2018_Oct_04_1120,Dissertation,59.49359316166042,
,,0,,,Verdadero,Falso,f,A,incongruent_left,La profesora dejó la galleta que compró en el mercado en su cartera durante la clase,1,1,1,0,f,1,13,La galleta estaba en la cartera durante la clase.,,,,,,,,,,,,,,,,,,,,,,,,,0,0,0,0,0,71,71,12,,,,,,,,,,,,,,,,,,0.5338830329710618,0.5154720019781962,0.5338830329710618,0.21629959502024576,0.18816047703148797,0.7501826279913075,0.23504399502417073,0.20559465797850862,0.9852266230154783,0.28376619197661057,0.2557050479808822,1.2689928149920888,0.30129273800412193,0.27258980204351246,1.5702855529962108,0.24989913497120142,0.22160715202335268,1.8201846879674122,0.35102769499644637,0.3222153920214623,2.1712123829638585,0.5186948100454174,0.48958142002811655,2.689907193009276,0.5674911550013348,0.5387294529937208,3.257398348010611,0.2841796120046638,0.2545707899844274,3.5415779600152746,0.23379388998728245,0.2041835499694571,3.775371850002557,0.2344724049908109,0.20653744495939463,4.009844254993368,0.3672876349883154,0.3386204320122488,4.377131889981683,,,,0.33459252503234893,0.3020925670280121,4.711724415014032,,,,,f,1,0.5737275180290453,f,1,2.4395669349469244,,,,0.6015271279611625,0.5693831520038657,5.313251542975195,0.3676213950384408,0.33971755002858117,5.680872938013636,,,,,,,,,,None,None,,,,,,,,,,8,001,3,2,2018_Oct_04_1120,Dissertation,59.49359316166042,
,,1,,,Verdadero,Falso,j,A,congruent_right,Mientras el padre leía la biblia antigua se partió en dos ,1,1,0,0,j,0,7,La biblia se quedó intacta.,,,,,,,,,,,,,,,,,,,,,,,,,0,0,0,0,0,72,72,6,,,,,,,,,,,,,,,,,,0.7175675650360063,0.7059302550042048,0.7175675650360063,0.2669144529500045,0.23855655797524378,0.9844820179860108,0.30139301205053926,0.27167801500763744,1.28587503003655,0.35055740299867466,0.32153655000729486,1.6364324330352247,0.2832913569873199,0.2543218669597991,1.9197237900225446,0.2517452599713579,0.219210320035927,2.1714690499939024,0.2504475830355659,0.22163252299651504,2.4219166330294684,0.30045505199814215,0.2717964770272374,2.7223716850276105,0.28451676497934386,0.2521301000379026,3.0068884500069544,0.2842555600218475,0.25493520201416686,3.291144010028802,0.5173453579773195,0.48768757499055937,3.8084893680061214,,,,,,,,,,,,,,,,,j,1,1.2410735749872401,j,1,2.26105126994662,,,,,,,,,,,,,,,,,,,None,None,,,,,,,,,,8,001,3,2,2018_Oct_04_1120,Dissertation,59.49359316166042,
,,1,,,Verdadero,Falso,j,A,congruent_left,La familia tenía una mesa antigua en el porche de su casa,0,0,0,0,f,0,201,La mesa antigua está en el comedor.,,,,,,,,,,,,,,,,,,,,,,,,,0,0,0,0,0,73,73,30,,,,,,,,,,,,,,,,,,0.6691052849637344,0.6599542640033178,0.6691052849637344,0.21725815703393891,0.18849039496853948,0.8863634419976734,0.23394379299134016,0.20482734200777486,1.1203072349890135,0.2341856699786149,0.20177750301081687,1.3544929049676284,0.23350621003191918,0.20518244500271976,1.5879991149995476,0.2676582519779913,0.2394652499933727,1.855657366977539,0.41745628498028964,0.3884058699477464,2.2731136519578286,0.5519135899958201,0.5224424280459061,2.8250272419536486,0.3331135430489667,0.3043661799747497,3.1581407850026153,0.3521338969585486,0.32183881499804556,3.510274681961164,0.4676003530039452,0.4392142769647762,3.977875034965109,0.4007050220388919,0.3672986250021495,4.378580057004001,,,,,,,,,,,,,,f,1,0.606673235015478,j,1,2.711928401957266,,,,,,,,,,,,,,,,,,,None,None,,,,,,,,,,8,001,3,2,2018_Oct_04_1120,Dissertation,59.49359316166042,
,,0,,,Verdadero,Falso,f,A,single_left,The boy,0,0,0,1,f,0,314,a,,,,,,,,,,,,,,,,,,,,,,,,,0,0,0,0,0,74,74,73,,,,,,,,,,,,,,,,,,,,,,,,,,,,,,,,,,,,,,,,,,,,,,,,,,,,,,,,,,,,,,,,,,,f,1,0.43518610001774505,None,0,,,,,,,,,,,,,,,,,,,,None,None,,,,,,,,,,8,001,3,2,2018_Oct_04_1120,Dissertation,59.49359316166042,
,,1,,,Verdadero,Falso,f,B,congruent_left,Las chicas acomodaron la ropa que sus padres les dejaron en su cuarto dentro del clóset antes de dormir,1,1,0,0,f,0,36,Los padres doblaron la ropa para sus hijas.,,,,,,,,,,,,,,,,,,,,,,,,,1,0,1,0,0,0,0,15,,,,,,,,,,,,,,,,,,0.5829083730350249,0.5658361339592375,0.5829083730350249,0.16753410996170714,0.13856116501847282,0.750442482996732,0.20138034503906965,0.16780870803631842,0.9518228280358016,0.3340343050076626,0.30232605803757906,1.2858571330434643,0.3507021549739875,0.3243671400123276,1.6365592880174518,0.38453294202918187,0.33902339002816007,2.0210922300466336,0.3842058229492977,0.35133586695883423,2.4052980529959314,0.4513468350050971,0.41859767003916204,2.8566448880010284,0.3172146970173344,0.2886919929878786,3.173859585018363,0.6012356400024146,0.5682172299711965,3.7750952250207774,0.3679242579964921,0.3384940919931978,4.1430194830172695,0.38462103699566796,0.35216895502526313,4.5276405200129375,0.31779806001577526,0.2883419720456004,4.845438580028713,,,,0.3002607200178318,0.2737331800162792,5.1456993000465445,,,,,f,1,0.5355735630146228,f,1,1.9588313509593718,,,,0.3849131729803048,0.3554945819778368,5.530612473026849,0.28396884200628847,0.2562682150164619,5.814581315033138,0.30014021799433976,0.2508472729823552,6.114721533027478,0.3347946249996312,0.30512854194967076,6.449516158027109,0.3842400700086728,0.35525603796122596,6.8337562280357815,None,None,,,,,,,,space,39.78834213304799,8,001,3,2,2018_Oct_04_1120,Dissertation,59.49359316166042,
,,0,,,Verdadero,Falso,f,B,single_left,Mi celular se me rompió cuando se me cayó al piso,0,0,0,1,f,0,252,Mi celular ya está roto.,,,,,,,,,,,,,,,,,,,,,,,,,1,0,1,0,0,1,1,51,,,,,,,,,,,,,,,,,,0.6009216629900038,0.5915639250306413,0.6009216629900038,0.2503712499747053,0.22155139001552016,0.8512929129647091,0.21746162505587563,0.18691258697072044,1.0687545380205847,0.23481516196625307,0.20571944495895877,1.3035696999868378,0.24929103499744087,0.2205613519763574,1.5528607349842787,0.31842636002693325,0.28895689197815955,1.871287095011212,0.5338377529988065,0.5046601599897258,2.4051248480100185,0.40123456000583246,0.3713638029876165,2.806359408015851,0.38499013194814324,0.3512550450395793,3.191349539963994,0.23377364501357079,0.20530815998790786,3.425123184977565,0.3508385280147195,0.32261409400962293,3.7759617129922844,,,,,,,,,,,,,,,,,f,1,0.4557282400201075,f,1,2.0928081200108863,,,,,,,,,,,,,,,,,,,None,None,,,,,,,,,,8,001,3,2,2018_Oct_04_1120,Dissertation,59.49359316166042,
,,1,,,Verdadero,Falso,f,B,congruent_right,Daniel metió el abrigo que su pareja dejó en la maleta en el clóset cuando regresaron,1,1,0,0,j,0,33,La pareja llevó un abrigo en su equipaje.,,,,,,,,,,,,,,,,,,,,,,,,,1,0,1,0,0,2,2,12,,,,,,,,,,,,,,,,,,0.5831334250397049,0.56659307499649,0.5831334250397049,0.18448268697829917,0.15540229296311736,0.7676161120180041,0.21706651500426233,0.1881758919917047,0.9846826270222664,0.7848326010280289,0.7550601030234247,1.7695152280502953,1.47125415696064,1.4433451250079088,3.2407693850109354,0.6182814399944618,0.5888182199560106,3.859050825005397,0.5185327570070513,0.49033172195777297,4.3775835820124485,0.6682422530138865,0.6402283780043945,5.045825835026335,0.5174401620170102,0.47241546300938353,5.563265997043345,0.4181857749936171,0.3885984170483425,5.981451772036962,0.40032171801431105,0.3708751670201309,6.381773490051273,0.41864463000092655,0.39849401998799294,6.8004181200522,0.3844594999682158,0.34110530698671937,7.184877620020416,,,,0.3176661100005731,0.27278755500447005,7.502543730020989,,,,,j,1,0.5905312170507386,f,1,4.199670498026535,,,,0.3337446200312115,0.30462972703389823,7.8362883500522,0.3007781369960867,0.2719495079945773,8.137066487048287,,,,,,,,,,None,None,,,,,,,,,,8,001,3,2,2018_Oct_04_1120,Dissertation,59.49359316166042,
,,0,,,Verdadero,Falso,f,A,incongruent_right,The girl,0,0,1,0,j,0,315,a,,,,,,,,,,,,,,,,,,,,,,,,,1,0,1,0,0,3,3,74,,,,,,,,,,,,,,,,,,,,,,,,,,,,,,,,,,,,,,,,,,,,,,,,,,,,,,,,,,,,,,,,,,,j,1,0.557846148032695,None,0,,,,,,,,,,,,,,,,,,,,None,None,,,,,,,,,,8,001,3,2,2018_Oct_04_1120,Dissertation,59.49359316166042,
,,1,,,Verdadero,Falso,f,B,congruent_left,La empleada guardó los documentos que recibió en el buzón en una carpeta después de revisarlos,1,1,0,0,f,0,32,La empleada revisó los documentos.,,,,,,,,,,,,,,,,,,,,,,,,,1,0,1,0,0,4,4,11,,,,,,,,,,,,,,,,,,0.5175928819808178,0.5008798969793133,0.5175928819808178,0.23355061799520627,0.20474268804537132,0.751143499976024,0.2509554370190017,0.22181473497767001,1.0020989369950257,0.3841218930319883,0.3555613700300455,1.386220830027014,0.35090379999019206,0.32364166900515556,1.737124630017206,0.38365304499166086,0.3507706679520197,2.120777675008867,0.40234730998054147,0.3737926770118065,2.5231249849894084,0.2663445870275609,0.23750680504599586,2.7894695720169693,0.33482220297446474,0.3020474120276049,3.124291774991434,0.25059176003560424,0.22120877704583108,3.3748835350270383,0.2505200619925745,0.22123234200989828,3.625403597019613,0.333891868009232,0.3019120719982311,3.9592954650288448,0.35090712999226525,0.3213664300274104,4.31020259502111,,,,0.46787967497948557,0.43831190798664466,4.778082270000596,,,,,f,1,0.5189782500383444,f,1,1.6594481699867174,,,,0.43443616502918303,0.4063921379856765,5.212518435029779,0.401266745000612,0.371549635019619,5.613785180030391,,,,,,,,,,None,None,,,,,,,,,,8,001,3,2,2018_Oct_04_1120,Dissertation,59.49359316166042,
,,1,,,Verdadero,Falso,j,B,congruent_left,La arquitecta guardó los planos en su bolsa,0,0,0,0,f,0,231,Los planos están en el archivero.,,,,,,,,,,,,,,,,,,,,,,,,,1,0,1,0,0,5,5,30,,,,,,,,,,,,,,,,,,1.8042183970101178,1.794109977025073,1.8042183970101178,0.4003417099593207,0.3719728799769655,2.2045601069694385,0.3013116780202836,0.2722448550048284,2.505871784989722,0.5173613050137646,0.4855917699751444,3.0232330900034867,0.418028489977587,0.3901299220160581,3.4412615799810737,0.3163068279973231,0.2862684350111522,3.757568407978397,0.45261048700194806,0.42351484700338915,4.210178894980345,1.2530649920227006,1.224190117965918,5.4632438870030455,,,,,,,,,,,,,,,,,,,,,,,,,,None,0,,j,1,7.394438420014922,,,,,,,,,,,,,,,,,,,None,None,,,,,,,,,,8,001,3,2,2018_Oct_04_1120,Dissertation,59.49359316166042,
,,1,,,Verdadero,Falso,j,B,congruent_right,Mientras el maestro tocaba el violín resonaba por todo el salón,1,1,0,0,j,0,25,El maestro tocaba el piano.,,,,,,,,,,,,,,,,,,,,,,,,,1,0,1,0,0,6,6,4,,,,,,,,,,,,,,,,,,0.9016097449930385,0.8864843770279549,0.9016097449930385,0.31759526196401566,0.2879962149891071,1.2192050069570541,0.6186846600030549,0.5903003650018945,1.837889666960109,1.0527487600338645,1.0239499229937792,2.8906384269939736,0.4179537449963391,0.38459120801417157,3.3085921719903126,0.4007309749722481,0.3721518579986878,3.7093231469625607,0.868923538015224,0.8363490250194445,4.578246684977785,1.5878839020151645,1.5548276049667038,6.166130586992949,0.7188159649958834,0.6902696820325218,6.884946551988833,0.8183676350163296,0.7873184300260618,7.703314187005162,0.6019746999954805,0.5729969120002352,8.305288887000643,,,,,,,,,,,,,,,,,j,1,0.6570329669630155,f,0,1.8556058099493384,,,,,,,,,,,,,,,,,,,None,None,,,,,,,,,,8,001,3,2,2018_Oct_04_1120,Dissertation,59.49359316166042,
