practiceimage,PracticeimageCorrAns,congruent,practiceSentence,practiceSentenceCompQ,compRespL,compRespR,compRespCorr,block,image,sentence,ambiguous,critical,Incongruent,Single,imageCorrAns,incongruentambiguous,criticalSentenceCode,compQ,RepeatFlankerIfNeeded.thisRepN,RepeatFlankerIfNeeded.thisTrialN,RepeatFlankerIfNeeded.thisN,RepeatFlankerIfNeeded.thisIndex,practiceFlankerLoop.thisRepN,practiceFlankerLoop.thisTrialN,practiceFlankerLoop.thisN,practiceFlankerLoop.thisIndex,RepeatPracticeSentencesIfNeeded.thisRepN,RepeatPracticeSentencesIfNeeded.thisTrialN,RepeatPracticeSentencesIfNeeded.thisN,RepeatPracticeSentencesIfNeeded.thisIndex,practiceSentenceLoop.thisRepN,practiceSentenceLoop.thisTrialN,practiceSentenceLoop.thisN,practiceSentenceLoop.thisIndex,MixedPractice.thisRepN,MixedPractice.thisTrialN,MixedPractice.thisN,MixedPractice.thisIndex,MixedPracticeTrial.thisRepN,MixedPracticeTrial.thisTrialN,MixedPracticeTrial.thisN,MixedPracticeTrial.thisIndex,blocks.thisRepN,blocks.thisTrialN,blocks.thisN,blocks.thisIndex,trials.thisRepN,trials.thisTrialN,trials.thisN,trials.thisIndex,keyResponseIntroText.keys,keyResponseIntroText.rt,keyResponseIntro2Text.keys,keyResponseIntro2Text.rt,FlankerInstructions_keyresponse.keys,FlankerInstructions_keyresponse.rt,FlankerInstructions2_keyresponse.keys,FlankerInstructions2_keyresponse.rt,PracticeFlankerResponse.keys,PracticeFlankerResponse.corr,PracticeFlankerResponse.rt,SPRInstructions_keyresponse.keys,SPRInstructions_keyresponse.rt,key_resp_5.keys,key_resp_5.rt,SPRinstructions2_keyresponse.keys,SPRinstructions2_keyresponse.rt,IRI_0,IRI_FL_0,space_0,IRI_1,IRI_FL_1,space_1,IRI_2,IRI_FL_2,space_2,IRI_3,IRI_FL_3,space_3,IRI_4,IRI_FL_4,space_4,IRI_5,IRI_FL_5,space_5,IRI_6,IRI_FL_6,space_6,IRI_7,IRI_FL_7,space_7,IRI_8,IRI_FL_8,space_8,IRI_9,IRI_FL_9,space_9,IRI_10,IRI_FL_10,space_10,IRI_11,IRI_FL_11,space_11,IRI_12,IRI_FL_12,space_12,key_resp_practiceCompQ.keys,key_resp_practiceCompQ.corr,key_resp_practiceCompQ.rt,IRI_13,IRI_FL_13,space_13,combinedInstructions_keyresponse.keys,combinedInstructions_keyresponse.rt,keyResponseInstructionsMixed.keys,keyResponseInstructionsMixed.rt,flankerkeyresponse.keys,flankerkeyresponse.corr,flankerkeyresponse.rt,CompQkeyresponse.keys,CompQkeyresponse.corr,CompQkeyresponse.rt,key_resp_3.keys,keyResponsePreStart.keys,keyResponsePreStart.rt,IRI_14,IRI_FL_14,space_14,IRI_15,IRI_FL_15,space_15,IRI_16,IRI_FL_16,space_16,IRI_17,IRI_FL_17,space_17,key_resp_2.keys,key_resp_4.keys,IRI_18,IRI_FL_18,space_18,IRI_19,IRI_FL_19,space_19,key_resp_4.rt,rest_keyresponse.keys,rest_keyresponse.rt,IRI_20,IRI_FL_20,space_20,participant,session,group,level,date,expName,frameRate,
,,,,,,,,,,,,,,,,,,,,,,,,,,,,,,,,,,,,,,,,,,,,,,,,,,,space,20.72870460699778,,,,,,,,,,,,,,,,,,,,,,,,,,,,,,,,,,,,,,,,,,,,,,,,,,,,,,,,,,,,,,,,,,,,,,,,,,,,,,,,,,,,,,,,,,,,,,,,,,,,9,001,4,2,2018_Oct_04_1239,Dissertation,59.81677428223845,
,,,,,,,,,,,,,,,,,,,,,,,,,,,,,,,,,,,,,,,,,,,,,,,,,,,,,space,17.195462589967065,,,,,,,,,,,,,,,,,,,,,,,,,,,,,,,,,,,,,,,,,,,,,,,,,,,,,,,,,,,,,,,,,,,,,,,,,,,,,,,,,,,,,,,,,,,,,,,,,,9,001,4,2,2018_Oct_04_1239,Dissertation,59.81677428223845,
,,,,,,,,,,,,,,,,,,,,,,,,,,,,,,,,,,,,,,,,,,,,,,,,,,,,,,,space,13.558417038002517,,,,,,,,,,,,,,,,,,,,,,,,,,,,,,,,,,,,,,,,,,,,,,,,,,,,,,,,,,,,,,,,,,,,,,,,,,,,,,,,,,,,,,,,,,,,,,,,9,001,4,2,2018_Oct_04_1239,Dissertation,59.81677428223845,
single_right,j,0,It's no problem if you need to guess the answer from time to time,It's important that you don't guess.,Verdadero,Falso,j,practice,,,,,,,,,,,0,0,0,0,0,0,0,5,,,,,,,,,,,,,,,,,,,,,,,,,,,,,,,space,13.565741122991312,j,1,0.7906210990040563,,,,,,,,,,,,,,,,,,,,,,,,,,,,,,,,,,,,,,,,,,,,,,,,,,,,,,,,,,,,,,,,,,,,,,,,,,,,,,,,,,,,,,,,,,,9,001,4,2,2018_Oct_04_1239,Dissertation,59.81677428223845,
congruent_left,f,1,This is an example of the sentences you will see throughout the study,You just saw an example of a stimulus.,Verdadero,Falso,f,practice,,,,,,,,,,,0,0,0,0,0,1,1,0,,,,,,,,,,,,,,,,,,,,,,,,,,,,,,,,,f,1,0.5355285920086317,,,,,,,,,,,,,,,,,,,,,,,,,,,,,,,,,,,,,,,,,,,,,,,,,,,,,,,,,,,,,,,,,,,,,,,,,,,,,,,,,,,,,,,,,,,9,001,4,2,2018_Oct_04_1239,Dissertation,59.81677428223845,
incongruent_left,f,0,Sometimes they'll be short,All sentences are the same.,Verdadero,Falso,j,practice,,,,,,,,,,,0,0,0,0,0,2,2,2,,,,,,,,,,,,,,,,,,,,,,,,,,,,,,,,,f,1,0.6852854020544328,,,,,,,,,,,,,,,,,,,,,,,,,,,,,,,,,,,,,,,,,,,,,,,,,,,,,,,,,,,,,,,,,,,,,,,,,,,,,,,,,,,,,,,,,,,9,001,4,2,2018_Oct_04_1239,Dissertation,59.81677428223845,
single_left,f,0,The questions that follow each sentence sometimes will be obvious and sometimes more difficult ,The difficulty of each sentence varies.,Verdadero,Falso,f,practice,,,,,,,,,,,0,0,0,0,0,3,3,4,,,,,,,,,,,,,,,,,,,,,,,,,,,,,,,,,f,1,0.5535200779559091,,,,,,,,,,,,,,,,,,,,,,,,,,,,,,,,,,,,,,,,,,,,,,,,,,,,,,,,,,,,,,,,,,,,,,,,,,,,,,,,,,,,,,,,,,,9,001,4,2,2018_Oct_04_1239,Dissertation,59.81677428223845,
incongruent_right,j,0,Your task is to read the sentence in the most natural way possible,You don't have to pay attention to the sentence.,Verdadero,Falso,j,practice,,,,,,,,,,,0,0,0,0,0,4,4,3,,,,,,,,,,,,,,,,,,,,,,,,,,,,,,,,,j,1,0.3722200199845247,,,,,,,,,,,,,,,,,,,,,,,,,,,,,,,,,,,,,,,,,,,,,,,,,,,,,,,,,,,,,,,,,,,,,,,,,,,,,,,,,,,,,,,,,,,9,001,4,2,2018_Oct_04_1239,Dissertation,59.81677428223845,
congruent_right,j,1,Sometimes the sentences will be longer,Some sentences are long.,Verdadero,Falso,f,practice,,,,,,,,,,,0,0,0,0,0,5,5,1,,,,,,,,,,,,,,,,,,,,,,,,,,,,,,,,,j,1,0.4055724250501953,,,,,,,,,,,,,,,,,,,,,,,,,,,,,,,,,,,,,,,,,,,,,,,,,,,,,,,,,,,,,,,,,,,,,,,,,,,,,,,,,,,,,,,,,,,9,001,4,2,2018_Oct_04_1239,Dissertation,59.81677428223845,
incongruent_left,f,0,Sometimes they'll be short,All sentences are the same.,Verdadero,Falso,j,practice,,,,,,,,,,,0,0,0,0,1,0,6,2,,,,,,,,,,,,,,,,,,,,,,,,,,,,,,,,,f,1,0.45528653502697125,,,,,,,,,,,,,,,,,,,,,,,,,,,,,,,,,,,,,,,,,,,,,,,,,,,,,,,,,,,,,,,,,,,,,,,,,,,,,,,,,,,,,,,,,,,9,001,4,2,2018_Oct_04_1239,Dissertation,59.81677428223845,
single_right,j,0,It's no problem if you need to guess the answer from time to time,It's important that you don't guess.,Verdadero,Falso,j,practice,,,,,,,,,,,0,0,0,0,1,1,7,5,,,,,,,,,,,,,,,,,,,,,,,,,,,,,,,,,j,1,0.3725354499765672,,,,,,,,,,,,,,,,,,,,,,,,,,,,,,,,,,,,,,,,,,,,,,,,,,,,,,,,,,,,,,,,,,,,,,,,,,,,,,,,,,,,,,,,,,,9,001,4,2,2018_Oct_04_1239,Dissertation,59.81677428223845,
incongruent_right,j,0,Your task is to read the sentence in the most natural way possible,You don't have to pay attention to the sentence.,Verdadero,Falso,j,practice,,,,,,,,,,,0,0,0,0,1,2,8,3,,,,,,,,,,,,,,,,,,,,,,,,,,,,,,,,,j,1,0.5192288749967702,,,,,,,,,,,,,,,,,,,,,,,,,,,,,,,,,,,,,,,,,,,,,,,,,,,,,,,,,,,,,,,,,,,,,,,,,,,,,,,,,,,,,,,,,,,9,001,4,2,2018_Oct_04_1239,Dissertation,59.81677428223845,
congruent_left,f,1,This is an example of the sentences you will see throughout the study,You just saw an example of a stimulus.,Verdadero,Falso,f,practice,,,,,,,,,,,0,0,0,0,1,3,9,0,,,,,,,,,,,,,,,,,,,,,,,,,,,,,,,,,f,1,0.37240886001382023,,,,,,,,,,,,,,,,,,,,,,,,,,,,,,,,,,,,,,,,,,,,,,,,,,,,,,,,,,,,,,,,,,,,,,,,,,,,,,,,,,,,,,,,,,,9,001,4,2,2018_Oct_04_1239,Dissertation,59.81677428223845,
single_left,f,0,The questions that follow each sentence sometimes will be obvious and sometimes more difficult ,The difficulty of each sentence varies.,Verdadero,Falso,f,practice,,,,,,,,,,,0,0,0,0,1,4,10,4,,,,,,,,,,,,,,,,,,,,,,,,,,,,,,,,,f,1,0.3883330629905686,,,,,,,,,,,,,,,,,,,,,,,,,,,,,,,,,,,,,,,,,,,,,,,,,,,,,,,,,,,,,,,,,,,,,,,,,,,,,,,,,,,,,,,,,,,9,001,4,2,2018_Oct_04_1239,Dissertation,59.81677428223845,
congruent_right,j,1,Sometimes the sentences will be longer,Some sentences are long.,Verdadero,Falso,f,practice,,,,,,,,,,,0,0,0,0,1,5,11,1,,,,,,,,,,,,,,,,,,,,,,,,,,,,,,,,,j,1,0.40487104997737333,,,,,,,,,,,,,,,,,,,,,,,,,,,,,,,,,,,,,,,,,,,,,,,,,,,,,,,,,,,,,,,,,,,,,,,,,,,,,,,,,,,,,,,,,,,9,001,4,2,2018_Oct_04_1239,Dissertation,59.81677428223845,
congruent_right,j,1,Sometimes the sentences will be longer,Some sentences are long.,Verdadero,Falso,f,practice,,,,,,,,,,,0,0,0,0,2,0,12,1,,,,,,,,,,,,,,,,,,,,,,,,,,,,,,,,,j,1,0.37165904499124736,,,,,,,,,,,,,,,,,,,,,,,,,,,,,,,,,,,,,,,,,,,,,,,,,,,,,,,,,,,,,,,,,,,,,,,,,,,,,,,,,,,,,,,,,,,9,001,4,2,2018_Oct_04_1239,Dissertation,59.81677428223845,
single_left,f,0,The questions that follow each sentence sometimes will be obvious and sometimes more difficult ,The difficulty of each sentence varies.,Verdadero,Falso,f,practice,,,,,,,,,,,0,0,0,0,2,1,13,4,,,,,,,,,,,,,,,,,,,,,,,,,,,,,,,,,f,1,0.3717169199953787,,,,,,,,,,,,,,,,,,,,,,,,,,,,,,,,,,,,,,,,,,,,,,,,,,,,,,,,,,,,,,,,,,,,,,,,,,,,,,,,,,,,,,,,,,,9,001,4,2,2018_Oct_04_1239,Dissertation,59.81677428223845,
incongruent_right,j,0,Your task is to read the sentence in the most natural way possible,You don't have to pay attention to the sentence.,Verdadero,Falso,j,practice,,,,,,,,,,,0,0,0,0,2,2,14,3,,,,,,,,,,,,,,,,,,,,,,,,,,,,,,,,,f,0,0.4048841549665667,,,,,,,,,,,,,,,,,,,,,,,,,,,,,,,,,,,,,,,,,,,,,,,,,,,,,,,,,,,,,,,,,,,,,,,,,,,,,,,,,,,,,,,,,,,9,001,4,2,2018_Oct_04_1239,Dissertation,59.81677428223845,
single_right,j,0,It's no problem if you need to guess the answer from time to time,It's important that you don't guess.,Verdadero,Falso,j,practice,,,,,,,,,,,0,0,0,0,2,3,15,5,,,,,,,,,,,,,,,,,,,,,,,,,,,,,,,,,j,1,0.8243291049730033,,,,,,,,,,,,,,,,,,,,,,,,,,,,,,,,,,,,,,,,,,,,,,,,,,,,,,,,,,,,,,,,,,,,,,,,,,,,,,,,,,,,,,,,,,,9,001,4,2,2018_Oct_04_1239,Dissertation,59.81677428223845,
congruent_left,f,1,This is an example of the sentences you will see throughout the study,You just saw an example of a stimulus.,Verdadero,Falso,f,practice,,,,,,,,,,,0,0,0,0,2,4,16,0,,,,,,,,,,,,,,,,,,,,,,,,,,,,,,,,,f,1,0.6049500050139613,,,,,,,,,,,,,,,,,,,,,,,,,,,,,,,,,,,,,,,,,,,,,,,,,,,,,,,,,,,,,,,,,,,,,,,,,,,,,,,,,,,,,,,,,,,9,001,4,2,2018_Oct_04_1239,Dissertation,59.81677428223845,
incongruent_left,f,0,Sometimes they'll be short,All sentences are the same.,Verdadero,Falso,j,practice,,,,,,,,,,,0,0,0,0,2,5,17,2,,,,,,,,,,,,,,,,,,,,,,,,,,,,,,,,,f,1,0.5392955049755983,,,,,,,,,,,,,,,,,,,,,,,,,,,,,,,,,,,,,,,,,,,,,,,,,,,,,,,,,,,,,,,,,,,,,,,,,,,,,,,,,,,,,,,,,,,9,001,4,2,2018_Oct_04_1239,Dissertation,59.81677428223845,
single_right,j,0,It's no problem if you need to guess the answer from time to time,It's important that you don't guess.,Verdadero,Falso,j,practice,,,,,,,,,,,0,0,0,0,3,0,18,5,,,,,,,,,,,,,,,,,,,,,,,,,,,,,,,,,j,1,0.3557881550514139,,,,,,,,,,,,,,,,,,,,,,,,,,,,,,,,,,,,,,,,,,,,,,,,,,,,,,,,,,,,,,,,,,,,,,,,,,,,,,,,,,,,,,,,,,,9,001,4,2,2018_Oct_04_1239,Dissertation,59.81677428223845,
single_left,f,0,The questions that follow each sentence sometimes will be obvious and sometimes more difficult ,The difficulty of each sentence varies.,Verdadero,Falso,f,practice,,,,,,,,,,,0,0,0,0,3,1,19,4,,,,,,,,,,,,,,,,,,,,,,,,,,,,,,,,,f,1,0.4889492929796688,,,,,,,,,,,,,,,,,,,,,,,,,,,,,,,,,,,,,,,,,,,,,,,,,,,,,,,,,,,,,,,,,,,,,,,,,,,,,,,,,,,,,,,,,,,9,001,4,2,2018_Oct_04_1239,Dissertation,59.81677428223845,
congruent_right,j,1,Sometimes the sentences will be longer,Some sentences are long.,Verdadero,Falso,f,practice,,,,,,,,,,,0,0,0,0,3,2,20,1,,,,,,,,,,,,,,,,,,,,,,,,,,,,,,,,,j,1,0.3226112279808149,,,,,,,,,,,,,,,,,,,,,,,,,,,,,,,,,,,,,,,,,,,,,,,,,,,,,,,,,,,,,,,,,,,,,,,,,,,,,,,,,,,,,,,,,,,9,001,4,2,2018_Oct_04_1239,Dissertation,59.81677428223845,
congruent_left,f,1,This is an example of the sentences you will see throughout the study,You just saw an example of a stimulus.,Verdadero,Falso,f,practice,,,,,,,,,,,0,0,0,0,3,3,21,0,,,,,,,,,,,,,,,,,,,,,,,,,,,,,,,,,f,1,0.33577256003627554,,,,,,,,,,,,,,,,,,,,,,,,,,,,,,,,,,,,,,,,,,,,,,,,,,,,,,,,,,,,,,,,,,,,,,,,,,,,,,,,,,,,,,,,,,,9,001,4,2,2018_Oct_04_1239,Dissertation,59.81677428223845,
incongruent_left,f,0,Sometimes they'll be short,All sentences are the same.,Verdadero,Falso,j,practice,,,,,,,,,,,0,0,0,0,3,4,22,2,,,,,,,,,,,,,,,,,,,,,,,,,,,,,,,,,f,1,0.45648416702169925,,,,,,,,,,,,,,,,,,,,,,,,,,,,,,,,,,,,,,,,,,,,,,,,,,,,,,,,,,,,,,,,,,,,,,,,,,,,,,,,,,,,,,,,,,,9,001,4,2,2018_Oct_04_1239,Dissertation,59.81677428223845,
incongruent_right,j,0,Your task is to read the sentence in the most natural way possible,You don't have to pay attention to the sentence.,Verdadero,Falso,j,practice,,,,,,,,,,,0,0,0,0,3,5,23,3,,,,,,,,,,,,,,,,,,,,,,,,,,,,,,,,,j,1,0.41615824203472584,,,,,,,,,,,,,,,,,,,,,,,,,,,,,,,,,,,,,,,,,,,,,,,,,,,,,,,,,,,,,,,,,,,,,,,,,,,,,,,,,,,,,,,,,,,9,001,4,2,2018_Oct_04_1239,Dissertation,59.81677428223845,
,,,,,,,,,,,,,,,,,,,0,0,0,0,,,,,,,,,,,,,,,,,,,,,,,,,,,,,,,,,,,,,,,,,,,,,,,,,,,,,,,,,,,,,,,,,,,,,,,,,,,,,,,,,,,,,,,,,,,,,,,,,,,,,,,,,,,,,,,,,,,,,,,,,,,,,,,,,,9,001,4,2,2018_Oct_04_1239,Dissertation,59.81677428223845,
,,,,,,,,,,,,,,,,,,,,,,,,,,,,,,,,,,,,,,,,,,,,,,,,,,,,,,,,,,,,,,space,20.910532152978703,,,,,,,,,,,,,,,,,,,,,,,,,,,,,,,,,,,,,,,,,,,,,,,,,,,,,,,,,,,,,,,,,,,,,,,,,,,,,,,,,,,,,,,,,9,001,4,2,2018_Oct_04_1239,Dissertation,59.81677428223845,
,,,,,,,,,,,,,,,,,,,,,,,,,,,,,,,,,,,,,,,,,,,,,,,,,,,,,,,,,,,,,,,,space,11.03159318602411,,,,,,,,,,,,,,,,,,,,,,,,,,,,,,,,,,,,,,,,,,,,,,,,,,,,,,,,,,,,,,,,,,,,,,,,,,,,,,,,,,,,,,,9,001,4,2,2018_Oct_04_1239,Dissertation,59.81677428223845,
congruent_left,f,1,This is an example of the sentences you will see throughout the study,You just saw an example of a stimulus.,Verdadero,Falso,f,practice,,,,,,,,,,,,,,,,,,,0,0,0,0,0,0,0,0,,,,,,,,,,,,,,,,,,,,,,,,,,,,,,,,space,2.2096339499694295,0.8880575649673119,0.8675600570277311,0.8880575649673119,0.5345611200318672,0.504167118051555,1.422618684999179,0.4521428349544294,0.42252170795109123,1.8747615199536085,0.7517380000208504,0.7228268819744699,2.626499519974459,0.5344771799864247,0.5059957630001009,3.1609766999608837,0.4853918650187552,0.4553310199989937,3.646368564979639,0.4676670450135134,0.4390762450057082,4.114035609993152,0.6689025719533674,0.6405755419982597,4.78293818194652,0.45091045304434374,0.4220855620224029,5.2338486349908635,0.40046413999516517,0.3680769049678929,5.634312774986029,0.4513153220177628,0.42227668000850827,6.0856280970037915,0.40171736798947677,0.37244171503698453,6.487345464993268,0.4168797699967399,0.3883931449963711,6.904225234990008,f,1,2.4617579479818232,,,,,,,,,,,,,,,,,,,,,,,,,,,,,,,,,,,,,,,,,,,9,001,4,2,2018_Oct_04_1239,Dissertation,59.81677428223845,
congruent_right,j,1,Sometimes the sentences will be longer,Some sentences are long.,Verdadero,Falso,f,practice,,,,,,,,,,,,,,,,,,,0,0,0,0,0,1,1,1,,,,,,,,,,,,,,,,,,,,,,,,,,,,,,,,,,0.6777419819845818,0.6656518480158411,0.6777419819845818,0.41847113997209817,0.3855752570088953,1.09621312195668,0.36714904801920056,0.33468599698971957,1.4633621699758805,0.4683704319759272,0.43934954499127343,1.9317326019518077,0.40116391802439466,0.3729327599867247,2.3328965199762024,0.2671229069819674,0.23488091002218425,2.60001942695817,,,,,,,,,,,,,,,,,,,,,,f,1,1.6420981049886905,,,,,,,,,,,,,,,,,,,,,,,,,,,,,,,,,,,,,,,,,,,9,001,4,2,2018_Oct_04_1239,Dissertation,59.81677428223845,
incongruent_left,f,0,Sometimes they'll be short,All sentences are the same.,Verdadero,Falso,j,practice,,,,,,,,,,,,,,,,,,,0,0,0,0,0,2,2,2,,,,,,,,,,,,,,,,,,,,,,,,,,,,,,,,,,0.47718811099184677,0.46414793602889404,0.47718811099184677,0.36887099902378395,0.3552607680321671,0.8460591100156307,0.26688366796588525,0.23800374497659504,1.112942777981516,0.2678411470260471,0.238690595026128,1.380783925007563,,,,,,,,,,,,,,,,,,,,,,,,,,,,j,1,1.2417590050026774,,,,,,,,,,,,,,,,,,,,,,,,,,,,,,,,,,,,,,,,,,,9,001,4,2,2018_Oct_04_1239,Dissertation,59.81677428223845,
incongruent_right,j,0,Your task is to read the sentence in the most natural way possible,You don't have to pay attention to the sentence.,Verdadero,Falso,j,practice,,,,,,,,,,,,,,,,,,,0,0,0,0,0,3,3,3,,,,,,,,,,,,,,,,,,,,,,,,,,,,,,,,,,0.4443107880069874,0.43306413700338453,0.4443107880069874,0.3674520200002007,0.3352738149696961,0.8117628080071881,0.23364688002038747,0.2052163949701935,1.0454096880275756,0.33403807500144467,0.30049729999154806,1.3794477630290203,0.31811102700885385,0.2855986700160429,1.6975587900378741,0.30037729995092377,0.27267516194842756,1.997936089988798,0.3669683450134471,0.33778251498006284,2.364904435002245,0.352030840003863,0.3190255649969913,2.716935275006108,0.3838052480132319,0.3557205219985917,3.10074052301934,0.2672935199807398,0.23774653003783897,3.3680340430000797,0.3345132870017551,0.3053288370138034,3.702547330001835,0.35108253499493003,0.32224838697584346,4.053629864996765,0.350345938000828,0.3211824370082468,4.403975802997593,j,1,1.6423713199910708,,,,,,,,,,,,,,,,,,,,,,,,,,,,,,,,,,,,,,,,,,,9,001,4,2,2018_Oct_04_1239,Dissertation,59.81677428223845,
single_left,f,0,The questions that follow each sentence sometimes will be obvious and sometimes more difficult ,The difficulty of each sentence varies.,Verdadero,Falso,f,practice,,,,,,,,,,,,,,,,,,,0,0,0,0,0,4,4,4,,,,,,,,,,,,,,,,,,,,,,,,,,,,,,,,,,0.4607580929878168,0.4414772859890945,0.4607580929878168,0.40179638197878376,0.3719106799690053,0.8625544749666005,0.3676993679837324,0.340227130043786,1.230253842950333,0.33319827500963584,0.30112092004856095,1.5634521179599687,0.26798907201737165,0.23468175699235871,1.8314411899773404,0.3675737800076604,0.33801489701727405,2.199014969985001,0.3662802340113558,0.3199160369695164,2.5652952039963566,0.4021585459704511,0.3678739360184409,2.9674537499668077,0.41848908498650417,0.38871032203314826,3.385942834953312,0.3498045480228029,0.32084030500845984,3.7357473829761147,0.4011136150220409,0.37141822796547785,4.136860997998156,0.38423029496334493,0.33819944702554494,4.521091292961501,0.30141676001949236,0.2728107520379126,4.822508052980993,f,1,1.7746830329997465,0.30096245696768165,0.25628700002562255,5.123470509948675,,,,,,,,,,,,,,,,,,,,,,,,,,,,,,,,,,,,,,,,9,001,4,2,2018_Oct_04_1239,Dissertation,59.81677428223845,
single_right,j,0,It's no problem if you need to guess the answer from time to time,It's important that you don't guess.,Verdadero,Falso,j,practice,,,,,,,,,,,,,,,,,,,0,0,0,0,0,5,5,5,,,,,,,,,,,,,,,,,,,,,,,,,,,,,,,,,,0.4464676409843378,0.4382516230107285,0.4464676409843378,0.3337081350036897,0.30464553501224145,0.7801757759880275,0.2513920529745519,0.22195314802229404,1.0315678289625794,0.31695502501679584,0.2846231269650161,1.3485228539793752,0.30001236201496795,0.27083995001157746,1.6485352159943432,0.2520960280089639,0.22226064302958548,1.900631244003307,0.2497479899902828,0.22102272498887032,2.15037923399359,0.5009662049706094,0.47155939001822844,2.6513454389641993,0.30134926503524184,0.27147516305558383,2.952694703999441,0.3348932020016946,0.30585157504538074,3.2875879060011357,0.3673792879562825,0.3352757119573653,3.654967193957418,0.3675851500011049,0.33842481998726726,4.022552343958523,0.2342149750329554,0.20577628997853026,4.2567673189914785,j,1,1.4580674300086685,0.200449846975971,0.17181301501113921,4.4572171659674495,,,,,,,,,,,,,,,,,,,,,,,,,,,,,,,,,,,,,,,,9,001,4,2,2018_Oct_04_1239,Dissertation,59.81677428223845,
,,,,,,,,,,,,,,,,,,,,,,,,,,,0,0,0,0,,,,,,,,,,,,,,,,,,,,,,,,,,,,,,,,,,,,,,,,,,,,,,,,,,,,,,,,,,,,,,,,,,,,,,,,,,,,,,,,,,,,,,,,,,,,,,,,,,,,,,,,,,,,,,,,,,,,,,,,,,9,001,4,2,2018_Oct_04_1239,Dissertation,59.81677428223845,
,,,,,,,,,,,,,,,,,,,,,,,,,,,,,,,,,,,,,,,,,,,,,,,,,,,,,,,,,,,,,,,,,,,,,,,,,,,,,,,,,,,,,,,,,,,,,,,,,,,,,,,,,,,,,,,,,space,27.224615680985153,,,,,,,,,,,,,,,,,,,,,,,,,,,,,,,,,,,,,,9,001,4,2,2018_Oct_04_1239,Dissertation,59.81677428223845,
,,None,,,Verdadero,Falso,j,None,single_left,A Iván le gusta cocinar y toma clases de gastronomía,None,None,None,None,f,None,0,Iván cocina mucho.,,,,,,,,,,,,,,,,,0,0,0,0,0,0,0,5,,,,,,,,,,,,,,,,,,,,,,,,,,0.7514345950330608,0.7318237019935623,0.7514345950330608,0.3671705650049262,0.33799776702653617,1.118605160037987,0.3011548949871212,0.27158701297594234,1.4197600550251082,0.752095706993714,0.7231547129922546,2.171855762018822,0.550782528007403,0.5230294580105692,2.722638290026225,0.7189465420087799,0.6853089850046672,3.441584832035005,0.3499454979901202,0.32073529000626877,3.7915303300251253,0.5523463499848731,0.5189733919687569,4.343876680009998,0.5185651200008579,0.48928312002681196,4.862441800010856,0.3842325549921952,0.35195042501436546,5.2466743550030515,,,,,,,,,,,,,,,,,,space,5.6698457970051095,f,1,0.40614827297395095,f,0,2.8623082719859667,None,,,,,,,,,,,,,,,,,,,,,,,,,,,,,9,001,4,2,2018_Oct_04_1239,Dissertation,59.81677428223845,
,,None,,,Verdadero,Falso,f,None,single_right,La madre de Julieta vive en Filadelfia así que Julieta la visita mucho,None,None,None,None,j,None,0,Julieta y su madre se ven mucho.,,,,,,,,,,,,,,,,,0,0,0,0,0,1,1,4,,,,,,,,,,,,,,,,,,,,,,,,,,0.4488330210442655,0.4340505839791149,0.4488330210442655,0.3190490319975652,0.28849119402002543,0.7678820530418307,0.4515597620047629,0.4229572370531969,1.2194418150465935,0.3506471279542893,0.3181764330365695,1.5700889430008829,0.4679483800427988,0.43894740502582863,2.0380373230436817,0.4012999850092456,0.3683447149815038,2.4393373080529273,0.38396890700096264,0.35530741000548005,2.82330621505389,0.8693107879953459,0.8403980979928747,3.692617003049236,0.3675378519692458,0.33853147202171385,4.060154855018482,0.6180246180156246,0.5856475469772704,4.678179473034106,0.4177547519793734,0.3889950779848732,5.09593422501348,0.4351482900092378,0.4055180880241096,5.531082515022717,0.4847653650213033,0.45183685299707577,6.015847880044021,,,,,,,,,,,j,1,0.3892614850192331,f,1,7.592031867010519,None,,,,,,,,,,,,,,,,,,,,,,,,,,,,,9,001,4,2,2018_Oct_04_1239,Dissertation,59.81677428223845,
,,None,,,Verdadero,Falso,f,None,incongruent_right,Estudio mucho durante la semana para poder divertirme durante el fin de semana,None,None,None,None,j,None,0,No voy a la biblioteca mucho los fines de semana.,,,,,,,,,,,,,,,,,0,0,0,0,0,2,2,2,,,,,,,,,,,,,,,,,,,,,,,,,,0.6011469820514321,0.5858892200049013,0.6011469820514321,0.5504752599517815,0.5217430500197224,1.1516222420032136,0.41785594302928075,0.38771971000824124,1.5694781850324944,0.4684460469870828,0.4358032650197856,2.037924232019577,0.6687897830270231,0.6396760199568234,2.7067140150466003,0.7687302549602464,0.7396521949558519,3.4754442700068466,0.9522800749982707,0.9233809729921632,4.427724345005117,0.3671798200230114,0.33828083000844344,4.794904165028129,0.6679809470078908,0.6351780670229346,5.46288511203602,0.38508892798563465,0.3556737669860013,5.847974040021654,0.4184045920264907,0.38907969696447253,6.266378632048145,0.45084152498748153,0.42237986001418903,6.7172201570356265,0.26721596997231245,0.23777872504433617,6.984436127007939,,,,,,,,,,,j,1,0.6369583119521849,f,1,6.701765157980844,None,,,,,,,,,,,,,,,,,,,,,,,,,,,,,9,001,4,2,2018_Oct_04_1239,Dissertation,59.81677428223845,
,,None,,,Verdadero,Falso,j,None,incongruent_left,Mi estación preferida es el verano,None,None,None,None,f,None,0,Me gusta el invierno más que las otras estaciones.,,,,,,,,,,,,,,,,,0,0,0,0,0,3,3,1,,,,,,,,,,,,,,,,,,,,,,,,,,0.7175517580471933,0.7093649479793385,0.7175517580471933,0.5009127899538726,0.4723690000246279,1.2184645480010659,0.6015855920268223,0.5729266099515371,1.8200501400278881,2.055713188019581,2.0267046479857527,3.8757633280474693,0.41796625999268144,0.38988954201340675,4.293729588040151,0.3342859949916601,0.30501740297768265,4.628015583031811,,,,,,,,,,,,,,,,,,,,,,,,,,,,,,,,f,1,0.570260819979012,j,1,2.494900334975682,None,,,,,,,,,,,,,,,,,,,,,,,,,,,,,9,001,4,2,2018_Oct_04_1239,Dissertation,59.81677428223845,
,,None,,,Verdadero,Falso,f,None,congruent_right,Me gusta vivir en la ciudad de Washington porque tiene mucha historia,None,None,None,None,j,None,0,Estoy contento viviendo en D.C.,,,,,,,,,,,,,,,,,0,0,0,0,0,4,4,3,,,,,,,,,,,,,,,,,,,,,,,,,,0.5334278399823233,0.5208709469879977,0.5334278399823233,0.35104052000679076,0.32162340998183936,0.8844683599891141,0.38413819001289085,0.35547508200397715,1.268606550002005,0.350867697969079,0.32249118998879567,1.619474247971084,0.36787995998747647,0.33802274498157203,1.9873542079585604,0.3505600219941698,0.32270280201919377,2.3379142299527302,0.40185628802282736,0.373229272023309,2.7397705179755576,0.4840866299928166,0.45627635798882693,3.223857147968374,0.8195061850128695,0.7899486620444804,4.043363332981244,0.3169994570198469,0.28825526201399043,4.360362790001091,0.40072910499293357,0.3715011050226167,4.761091894994024,0.35074449301464483,0.3209259699797258,5.111836388008669,,,,,,,,,,,,,,j,1,0.7731698100105859,f,1,2.1943924199440517,None,,,,,,,,,,,,,,,,,,,,,,,,,,,,,9,001,4,2,2018_Oct_04_1239,Dissertation,59.81677428223845,
,,None,,,Verdadero,Falso,j,None,congruent_left,El chico corrió en el parque ayer,None,None,None,None,f,None,0,El chico no hizo nada ayer.,,,,,,,,,,,,,,,,,0,0,0,0,0,5,5,0,,,,,,,,,,,,,,,,,,,,,,,,,,0.43400484998710454,0.42752360698068514,0.43400484998710454,0.3180870619835332,0.28520404995651916,0.7520919119706377,0.38427505001891404,0.356116978044156,1.1363669619895518,0.5174074149690568,0.48903391999192536,1.6537743769586086,0.46828381303930655,0.43906331702601165,2.122058189997915,0.3334438249585219,0.3041495379875414,2.455502014956437,0.43452786502894014,0.4063338959822431,2.890029879985377,,,,,,,,,,,,,,,,,,,,,,,,,,,,,f,1,0.456280782003887,j,1,1.676529307034798,None,,,,,,,,,,,,,,,,,,,,,,,,,,,,,9,001,4,2,2018_Oct_04_1239,Dissertation,59.81677428223845,
,,,,,,,,,,,,,,,,,,,,,,,,,,,,,,,,,,,0,0,0,0,,,,,,,,,,,,,,,,,,,,,,,,,,,,,,,,,,,,,,,,,,,,,,,,,,,,,,,,,,,,,,,,,,,,,,,,,,,,,,,,,,,,,,,,,,,,,,,,,,,,,,,,,,,,,,,,,,9,001,4,2,2018_Oct_04_1239,Dissertation,59.81677428223845,
,,,,,,,,,,,,,,,,,,,,,,,,,,,,,,,,,,,,,,,,,,,,,,,,,,,,,,,,,,,,,,,,,,,,,,,,,,,,,,,,,,,,,,,,,,,,,,,,,,,,,,,,,,,,,,,,,,,,,,,,,,,,space,17.419184074969962,,,,,,,,,,,,,,,,,,,,,,,,,,,9,001,4,2,2018_Oct_04_1239,Dissertation,59.81677428223845,
,,0,,,Verdadero,Falso,j,B,incongruent_right,Amalia puso el jamón que sus hermanos dejaron en los platos en el refrigerador después de que comieron,1,1,1,0,j,1,34,Los hermanos ordenaron la mesa después de comer. ,,,,,,,,,,,,,,,,,,,,,,,,,0,0,0,0,0,0,0,13,,,,,,,,,,,,,,,,,,0.6174457349698059,0.5995684230001643,0.6174457349698059,0.36754196701804176,0.33897586195962504,0.9849877019878477,0.3339047349872999,0.3046312549849972,1.3188924369751476,0.35123089799890295,0.32153320498764515,1.6701233349740505,0.31840924703283235,0.29138752998551354,1.9885325820068829,0.4177089500008151,0.38922255201032385,2.406241532007698,0.36692559998482466,0.3347263459581882,2.7731671319925226,0.4012256180285476,0.372447005007416,3.1743927500210702,0.5846920479671098,0.5524471029639244,3.75908479798818,0.585262414009776,0.5588705739937723,4.344347211997956,0.3677753829979338,0.3386200499953702,4.71212259499589,0.5348491970216855,0.5068080519558862,5.246971792017575,0.3673643579822965,0.3386823930195533,5.614336149999872,,,,0.45164583501173183,0.4238761610467918,6.065981985011604,,,,,j,1,0.45598862500628456,j,1,3.5299194380058907,,,,0.4842192719806917,0.4551620029960759,6.550201256992295,0.367868350003846,0.3384188499767333,6.918069606996141,0.31746116501744837,0.2887333699618466,7.23553077201359,0.33430342498468235,0.3047807500115596,7.569834196998272,None,None,,,,,,,,,,,,,9,001,4,2,2018_Oct_04_1239,Dissertation,59.81677428223845,
,,0,,,Verdadero,Falso,j,B,single_right,Subí la escalera para irme a dormir,0,0,0,1,j,0,250,Mi cuarto de dormir está en la planta baja.,,,,,,,,,,,,,,,,,,,,,,,,,0,0,0,0,0,1,1,49,,,,,,,,,,,,,,,,,,0.38297076197341084,0.3659348899964243,0.38297076197341084,0.3339235750027001,0.32147004501894116,0.7168943369761109,0.3018479350139387,0.2726448230096139,1.0187422719900496,0.2505485799629241,0.218279168009758,1.2692908519529738,0.40083995304303244,0.37143807701068,1.6701308049960062,0.31776545697357506,0.28853091498604044,1.9878962619695812,0.4512080000131391,0.42265431297710165,2.4391042619827203,,,,,,,,,,,,,,,,,,,,,,,,,,,,,j,1,0.40690271300263703,j,1,3.3977378929848783,,,,,,,,,,,,,,,,None,None,,,,,,,,,,,,,9,001,4,2,2018_Oct_04_1239,Dissertation,59.81677428223845,
,,0,,,Verdadero,Falso,j,B,incongruent_left,Justo cuando aparcaron el carro viejo volvió a fallar,1,1,1,0,f,1,23,El carro está en una condición perfecta.,,,,,,,,,,,,,,,,,,,,,,,,,0,0,0,0,0,2,2,2,,,,,,,,,,,,,,,,,,0.5172533320146613,0.50377627403941,0.5172533320146613,0.33476933295605704,0.305376072996296,0.8520226649707183,0.5005985420430079,0.4711391199962236,1.3526212070137262,1.4374666700023226,1.4083681650226936,2.790087877016049,0.40153630799613893,0.3721851399750449,3.191624185012188,1.1866678319638595,1.157859945029486,4.378292016976047,0.4497940380242653,0.42134732799604535,4.828086055000313,0.7526457770145498,0.7185047100065276,5.5807318320148624,0.31727483798749745,0.28597991104470566,5.89800667000236,,,,,,,,,,,,,,,,,,,,,,,f,1,0.5227632030146196,j,1,2.3281027320190333,,,,,,,,,,,,,,,,None,None,,,,,,,,,,,,,9,001,4,2,2018_Oct_04_1239,Dissertation,59.81677428223845,
,,0,,,Verdadero,Falso,f,B,single_right,Mi tarjeta de crédito se me quedó en casa,0,0,0,1,j,0,254,Tuve que usar efectivo para pagar.,,,,,,,,,,,,,,,,,,,,,,,,,0,0,0,0,0,3,3,53,,,,,,,,,,,,,,,,,,0.48340175702469423,0.4735679830191657,0.48340175702469423,0.28390020498773083,0.25396210700273514,0.7673019620124251,0.3181625200086273,0.2879741130163893,1.0854644820210524,0.43458837299840525,0.40582953998818994,1.5200528550194576,0.31612362200394273,0.2865330540225841,1.8361764770234004,0.6849623610032722,0.6553883560118265,2.5211388380266726,0.5695682019577362,0.5405832569813356,3.0907070399844088,0.7686682070489042,0.7356751200277358,3.859375247033313,0.3672933100024238,0.3384466930292547,4.226668557035737,,,,,,,,,,,,,,,,,,,,,,,j,1,0.38565094699151814,j,0,9.112016686995048,,,,,,,,,,,,,,,,None,None,,,,,,,,,,,,,9,001,4,2,2018_Oct_04_1239,Dissertation,59.81677428223845,
,,1,,,Verdadero,Falso,f,B,congruent_right,El padre metió las copas sucias que su hija dejó en la mesa en el lavaplatos cuando acabó de comer,1,1,0,0,j,0,37,El padre limpió la mesa después de la comida.,,,,,,,,,,,,,,,,,,,,,,,,,0,0,0,0,0,4,4,16,,,,,,,,,,,,,,,,,,0.58372287300881,0.5674029130022973,0.58372287300881,0.3508354999939911,0.3212639580015093,0.9345583730028011,0.3338756099692546,0.30525409698020667,1.2684339829720557,0.4018746770452708,0.3718607969931327,1.6703086600173265,0.5498850930016488,0.5164519960526377,2.2201937530189753,1.0036307769478299,0.9732496420037933,3.223824529966805,1.119783278030809,1.0908287710044533,4.343607807997614,0.4851995700155385,0.4563167350133881,4.828807378013153,0.43441162997623906,0.40684445801889524,5.263219007989392,0.25045910698827356,0.22211236698785797,5.513678114977665,0.5017340350314043,0.4732193570234813,6.01541215000907,0.3511638749623671,0.32303436199435964,6.366576024971437,0.2503767430316657,0.2048243249882944,6.616952768003102,,,,0.4502250449731946,0.42150011501507834,7.067177812976297,,,,,j,1,0.886390810017474,f,1,2.3602807450224645,,,,0.30018820002442226,0.2697138710063882,7.367366013000719,0.3012778700212948,0.26787521701771766,7.668643883022014,0.5019802999449894,0.4717430039891042,8.170624182967003,0.3837570250034332,0.355539861950092,8.554381207970437,None,None,0.28438875201391056,0.2556416720035486,8.838769959984347,0.38434803299605846,0.3382552129914984,9.223117992980406,,,,,,,9,001,4,2,2018_Oct_04_1239,Dissertation,59.81677428223845,
,,1,,,Verdadero,Falso,f,B,congruent_left,"Entre los amigos en la fiesta de Luis estaban sus hermanos, Marisa y Germán ",0,0,0,0,f,0,255,María y Germán son amigos de Luis.,,,,,,,,,,,,,,,,,,,,,,,,,0,0,0,0,0,5,5,54,,,,,,,,,,,,,,,,,,0.3826967650093138,0.3701372609939426,0.3826967650093138,0.35192302998621017,0.32209817197872326,0.734619794995524,0.30065045499941334,0.2714747430291027,1.0352702499949373,0.40135933802230284,0.3681759320315905,1.4366295880172402,0.3174673799658194,0.28901514899916947,1.7540969679830596,0.40124377701431513,0.3725339150405489,2.1553407449973747,0.2836273249704391,0.25535980297718197,2.438968069967814,0.3848534630378708,0.3555577200022526,2.8238215330056846,0.40087020001374185,0.3686927770031616,3.2246917330194265,0.43418832996394485,0.40564526797970757,3.6588800629833713,0.367600911995396,0.3374714030069299,4.026480974978767,0.617835582990665,0.588336854998488,4.644316557969432,0.518502350023482,0.4883730449946597,5.162818907992914,,,,0.46818422502838075,0.43474574299762025,5.631003133021295,,,,,f,1,0.6565395630314015,j,0,2.4780698500107974,,,,,,,,,,,,,,,,None,None,,,,,,,,,,,,,9,001,4,2,2018_Oct_04_1239,Dissertation,59.81677428223845,
,,1,,,Verdadero,Falso,f,B,congruent_right,En el salón de conciertos resonaba la música de la banda ,0,0,0,0,j,0,249,Se podía escuchar la música en todo el salón.,,,,,,,,,,,,,,,,,,,,,,,,,0,0,0,0,0,6,6,48,,,,,,,,,,,,,,,,,,0.44987922301515937,0.4384115440188907,0.44987922301515937,0.28448706498602405,0.2551939720287919,0.7343662880011834,0.21684276999440044,0.18814768199808896,0.9512090579955839,0.36789493198739365,0.3345525120384991,1.3191039899829775,0.3846756030106917,0.3515117149800062,1.7037795929936692,0.21662989200558513,0.1882821330218576,1.9204094849992543,0.8861488099792041,0.8570382969919592,2.8065582949784584,0.5012335400097072,0.47272349800914526,3.3077918349881656,0.417951918032486,0.38545530004194006,3.7257437530206516,0.28311152197420597,0.2543370869825594,4.008855274994858,0.3516422900138423,0.32114708999870345,4.3604975650087,,,,,,,,,,,,,,,,,j,1,1.3378388800192624,f,1,2.728356095030904,,,,,,,,,,,,,,,,None,None,,,,,,,,,,,,,9,001,4,2,2018_Oct_04_1239,Dissertation,59.81677428223845,
,,1,,,Verdadero,Falso,f,B,congruent_right,Después de hacer la tarea Pilar volvió a jugar videojuegos,0,0,0,0,j,0,241,A Pilar le gustan los videojuegos.,,,,,,,,,,,,,,,,,,,,,,,,,0,0,0,0,0,7,7,40,,,,,,,,,,,,,,,,,,0.3163307619979605,0.3051606549997814,0.3163307619979605,0.30043662805110216,0.2707757379976101,0.6167673900490627,0.26789385499432683,0.2379970180336386,0.8846612450433895,0.3679078019922599,0.3386568379937671,1.2525690470356494,0.5011107029858977,0.4721335200010799,1.753679750021547,0.31743407202884555,0.2891899080132134,2.0711138220503926,0.4504972029826604,0.4202147930045612,2.521611025033053,0.6860743570141494,0.6570813590078615,3.2076853820472024,0.3343581529916264,0.30482416198356077,3.542043535038829,0.30011968698818237,0.27139866299694404,3.842163222027011,,,,,,,,,,,,,,,,,,,,j,1,0.5859494530013762,f,1,1.7091632169904187,,,,,,,,,,,,,,,,None,None,,,,,,,,,,,,,9,001,4,2,2018_Oct_04_1239,Dissertation,59.81677428223845,
,,0,,,Verdadero,Falso,j,B,incongruent_left,Cuando la artista pintó el cuadro cayó de la pared,1,1,1,0,f,1,27,El cuadro está colgado firmemente.,,,,,,,,,,,,,,,,,,,,,,,,,0,0,0,0,0,8,8,6,,,,,,,,,,,,,,,,,,0.2822926900116727,0.272052927990444,0.2822926900116727,0.2850412469706498,0.25472358701517805,0.5673339369823225,0.4338361080153845,0.4019597170408815,1.001170044997707,0.5680285799899139,0.5368170750443824,1.5691986249876209,0.6190407570102252,0.5906593729741871,2.188239381997846,0.3510299129993655,0.32160034496337175,2.5392692949972115,1.2369238219689578,1.208451442013029,3.7761931169661693,0.38409106305334717,0.35516895801993087,4.1602841800195165,0.41765939199831337,0.3848120479960926,4.57794357201783,0.28431359998648986,0.2552418650011532,4.86225717200432,,,,,,,,,,,,,,,,,,,,f,1,0.5030330619774759,j,1,2.862809769983869,,,,,,,,,,,,,,,,None,None,,,,,,,,,,,,,9,001,4,2,2018_Oct_04_1239,Dissertation,59.81677428223845,
,,1,,,Verdadero,Falso,f,A,congruent_left,The girl,0,0,0,0,f,0,307,a,,,,,,,,,,,,,,,,,,,,,,,,,0,0,0,0,0,9,9,66,,,,,,,,,,,,,,,,,,,,,,,,,,,,,,,,,,,,,,,,,,,,,,,,,,,,,,,,,,,,,,,,,,,f,1,0.4385337429703213,None,0,,,,,,,,,,,,,,,,,None,None,,,,,,,,,,,,,9,001,4,2,2018_Oct_04_1239,Dissertation,59.81677428223845,
,,1,,,Verdadero,Falso,j,B,congruent_right,Cuando mi hermana maneja el carro mi papá camina a la oficina,0,0,0,0,j,0,237,Mi hermana tiene su propio carro.,,,,,,,,,,,,,,,,,,,,,,,,,0,0,0,0,0,10,10,36,,,,,,,,,,,,,,,,,,0.4671097900136374,0.44923199905315414,0.4671097900136374,0.3341655519907363,0.305902462976519,0.8012753420043737,0.2673288229852915,0.24183164996793494,1.0686041649896652,0.40097414498450235,0.37225613300688565,1.4695783099741675,0.38475784001639113,0.35580073203891516,1.8543361499905586,0.5838830720167607,0.5523261319613084,2.4382192220073193,0.41849623498274013,0.38819516997318715,2.8567154569900595,0.6181559700053185,0.5894298329949379,3.474871426995378,0.5681985730188899,0.5388209069496952,4.043070000014268,0.45043141196947545,0.4213993279845454,4.493501411983743,0.3685305080143735,0.3379749399609864,4.862031919998117,0.334425046981778,0.3017208999954164,5.196456966979895,,,,,,,,,,,,,,j,1,0.7569288100348786,j,1,2.5449822249938734,,,,,,,,,,,,,,,,None,None,,,,,,,,,,,,,9,001,4,2,2018_Oct_04_1239,Dissertation,59.81677428223845,
,,0,,,Verdadero,Falso,j,B,incongruent_left,La arquitecta puso los planos que sus compañeros le dejaron en su oficina encima de la mesa para verlos bien,1,1,1,0,f,1,35,La arquitecta sacó los planos de su bolsa.,,,,,,,,,,,,,,,,,,,,,,,,,0,0,0,0,0,11,11,14,,,,,,,,,,,,,,,,,,0.4669154249713756,0.44507269200403243,0.4669154249713756,0.43437784299021587,0.4065977999707684,0.9012932679615915,0.5676517250249162,0.5187484319903888,1.4689449929865077,0.4518138850107789,0.42366186098661274,1.9207588779972866,0.35096672497456893,0.322087710024789,2.2717256029718556,0.3843280749861151,0.35674634599126875,2.6560536779579706,0.41808972699800506,0.3901092750020325,3.0741434049559757,0.3671787080238573,0.3398754610097967,3.441322112979833,0.4510845019831322,0.4187795980251394,3.8924066149629653,0.8018653230392374,0.7722389319678769,4.694271938002203,0.7691516499617137,0.7396209869766608,5.463423587963916,0.28413982200436294,0.25149040803080425,5.747563409968279,0.31705370999407023,0.2889607499819249,6.0646171199623495,,,,0.5019045899971388,0.47259562701219693,6.566521709959488,,,,,f,1,0.7061190030071884,j,1,2.779850644990802,,,,0.4678744100383483,0.43535201996564865,7.034396119997837,0.3510817799833603,0.32273213303415105,7.385477899981197,0.3341251299716532,0.30532926198793575,7.71960302995285,0.3338441780069843,0.289255081966985,8.053447207959834,None,None,0.41786606702953577,0.3847646280191839,8.47131327498937,0.43374633498024195,0.4060846020001918,8.905059609969612,,,,,,,9,001,4,2,2018_Oct_04_1239,Dissertation,59.81677428223845,
,,0,,,Verdadero,Falso,j,B,incongruent_right,Tere colocó la prueba que la Sra. Martín le dejó en su mochila sin mirar la nota,0,1,1,0,j,0,116,A Tere le importó mucho su nota.,,,,,,,,,,,,,,,,,,,,,,,,,0,0,0,0,0,12,12,27,,,,,,,,,,,,,,,,,,0.5004932280280627,0.4821368769626133,0.5004932280280627,0.30091008200543,0.268008565006312,0.8014033100334927,1.0690481849596836,1.0414598180213943,1.8704514949931763,0.40154431003611535,0.3720422650221735,2.2719958050292917,0.7347093579592183,0.705574057996273,3.00670516298851,0.4182519420282915,0.38968787697376683,3.4249571050168015,0.36739488499006256,0.3386953530134633,3.792351990006864,0.38353235798422247,0.35487558803288266,4.1758843479910865,0.5525049400166608,0.5227751500206068,4.728389288007747,0.3670973519911058,0.3380712700309232,5.095486639998853,0.6350092680077069,0.6055980299715884,5.73049590800656,0.28355004201876,0.25367586995707825,6.01404595002532,0.3180237499764189,0.28798458800883964,6.332069700001739,,,,0.3512725579785183,0.32214683201164007,6.683342257980257,,,,,j,1,0.4717101569985971,j,1,1.609053429972846,,,,0.40050466201500967,0.37126060301670805,7.083846919995267,0.40155717299785465,0.37195981497643515,7.485404092993122,0.3678487400175072,0.3385900229914114,7.853252833010629,,,,None,None,,,,,,,,,,,,,9,001,4,2,2018_Oct_04_1239,Dissertation,59.81677428223845,
,,0,,,Verdadero,Falso,f,B,single_right,Después de preparar el desayuno Pedro limpia bien la cocina,0,0,0,1,j,0,238,Pedro no deja la cocina sucia.,,,,,,,,,,,,,,,,,,,,,,,,,0,0,0,0,0,13,13,37,,,,,,,,,,,,,,,,,,0.5004452650318854,0.4841743049910292,0.5004452650318854,0.4343749349936843,0.40479286696063355,0.9348202000255696,0.26798910996876657,0.23833057703450322,1.2028093099943362,0.6676257550134324,0.6397755349753425,1.8704350650077686,0.401585821993649,0.36784981202799827,2.2720208870014176,0.9859018599963747,0.9569243720034137,3.2579227469977923,0.7348038200289011,0.7055780380032957,3.9927265670266934,0.21776607795618474,0.1887130049872212,4.210492644982878,0.45124204200692475,0.4222500049509108,4.661734686989803,0.9685501000494696,0.9404000570066273,5.6302847870392725,,,,,,,,,,,,,,,,,,,,j,1,0.33575311803724617,f,1,2.7956864750012755,,,,,,,,,,,,,,,,None,None,,,,,,,,,,,,,9,001,4,2,2018_Oct_04_1239,Dissertation,59.81677428223845,
,,0,,,Verdadero,Falso,f,B,incongruent_right,El chico toca el violín raro,0,0,1,0,j,0,257,El chico no sabe tocar bien.,,,,,,,,,,,,,,,,,,,,,,,,,0,0,0,0,0,14,14,56,,,,,,,,,,,,,,,,,,0.566907154978253,0.5594149969983846,0.566907154978253,0.2668995530111715,0.23682783299591392,0.8338067079894245,0.23482114198850468,0.22290967096341774,1.0686278499779291,0.4011743650189601,0.37239745497936383,1.4698022149968892,0.38392124499659985,0.35700256197014824,1.853723459993489,0.3675695279962383,0.33932669000932947,2.2212929879897274,,,,,,,,,,,,,,,,,,,,,,,,,,,,,,,,j,1,0.45579207001719624,f,1,2.4237826020107605,,,,,,,,,,,,,,,,None,None,,,,,,,,,,,,,9,001,4,2,2018_Oct_04_1239,Dissertation,59.81677428223845,
,,0,,,Verdadero,Falso,f,A,incongruent_right,The girl,0,0,1,0,j,0,315,a,,,,,,,,,,,,,,,,,,,,,,,,,0,0,0,0,0,15,15,74,,,,,,,,,,,,,,,,,,,,,,,,,,,,,,,,,,,,,,,,,,,,,,,,,,,,,,,,,,,,,,,,,,,j,1,0.3895337999565527,None,0,,,,,,,,,,,,,,,,,None,None,,,,,,,,,,,,,9,001,4,2,2018_Oct_04_1239,Dissertation,59.81677428223845,
,,1,,,Verdadero,Falso,f,B,congruent_right,Cuando el escultor terminó la obra tenía tres metros  de altura,1,1,0,0,j,0,29,La estatua era muy alta.,,,,,,,,,,,,,,,,,,,,,,,,,0,0,0,0,0,16,16,8,,,,,,,,,,,,,,,,,,0.5179970729514025,0.502376384974923,0.5179970729514025,0.30040840699803084,0.2717931470251642,0.8184054799494334,0.41818880004575476,0.3855629329918884,1.2365942799951881,0.8691356749623083,0.8411523450049572,2.1057299549574964,0.6512598330155015,0.6227688729995862,2.756989787972998,0.3505750300246291,0.3222639400046319,3.107564817997627,0.3847463999991305,0.35539812699425966,3.4923112179967575,0.4845078619546257,0.4560824950458482,3.976819079951383,0.3679644100484438,0.339190042053815,4.344783489999827,0.38318111799890175,0.3544772030436434,4.727964607998729,0.45164060697425157,0.42174542997963727,5.17960521497298,,,,,,,,,,,,,,,,,j,1,0.8213635070133023,f,1,2.606968769978266,,,,,,,,,,,,,,,,None,None,,,,,,,,,,,,,9,001,4,2,2018_Oct_04_1239,Dissertation,59.81677428223845,
,,1,,,Verdadero,Falso,f,B,congruent_left,La empleada guardó los documentos que recibió en el buzón en una carpeta después de revisarlos,1,1,0,0,f,0,32,La empleada revisó los documentos.,,,,,,,,,,,,,,,,,,,,,,,,,0,0,0,0,0,17,17,11,,,,,,,,,,,,,,,,,,0.5502508099889383,0.5355295100016519,0.5502508099889383,0.2671616949955933,0.2173913670121692,0.8174125049845316,0.3842633150052279,0.3553224779898301,1.2016758199897595,0.4514420730411075,0.42146567499730736,1.653117893030867,0.3515713269589469,0.3230406029615551,2.004689219989814,0.4676267399918288,0.43874401500215754,2.4723159599816427,0.28423144802218303,0.25522832304704934,2.7565474080038257,0.5179444919922389,0.48901008995017037,3.2744918999960646,0.36791263800114393,0.33938878803746775,3.6424045379972085,0.2673042620299384,0.23858965700492263,3.909708800027147,0.4180235999519937,0.372888782992959,4.327732399979141,0.4838985550450161,0.456089660001453,4.811630955024157,0.35082342999521643,0.3224781100288965,5.162454385019373,,,,0.6513943049940281,0.6221016699564643,5.813848690013401,,,,,f,1,0.7038526100222953,f,1,2.0584712140262127,,,,0.2846080500166863,0.2553689719643444,6.0984567400300875,0.384638269955758,0.35555751202628016,6.4830950099858455,,,,,,,None,None,,,,,,,,,,,,,9,001,4,2,2018_Oct_04_1239,Dissertation,59.81677428223845,
,,0,,,Verdadero,Falso,j,B,incongruent_left,La cantante colocó el micrófono que usó en el escenario en su lugar después del concierto,1,1,1,0,f,1,31,La cantante no usó un micrófono durante el show.,,,,,,,,,,,,,,,,,,,,,,,,,0,0,0,0,0,18,18,10,,,,,,,,,,,,,,,,,,0.5184554269653745,0.5074945139931515,0.5184554269653745,0.35144921200117096,0.3223161419737153,0.8699046389665455,0.38350515300408006,0.3565807419945486,1.2534097919706255,0.3853297419846058,0.3561859700130299,1.6387395339552313,0.4847877250285819,0.45628812204813585,2.1235272589838132,1.0861161099746823,1.0571655599633232,3.2096433689584956,0.5181255629868247,0.48971076001180336,3.72776893194532,0.4177820370532572,0.38910906499950215,4.1455509689985774,0.3340556799666956,0.2885478420066647,4.479606648965273,0.2515003430307843,0.2226295550353825,4.731106991996057,0.4842851599678397,0.45614413800649345,5.215392151963897,0.30023657699348405,0.2723491999786347,5.515628728957381,0.48485291498946026,0.4559917549486272,6.000481643946841,,,,0.5181115880259313,0.4895812269533053,6.518593231972773,,,,,j,0,0.3212461549555883,j,1,2.0905864969827235,,,,0.4511810300173238,0.42234880197793245,6.969774261990096,0.3836053899722174,0.3556991149671376,7.353379651962314,,,,,,,None,None,,,,,,,,,,,,,9,001,4,2,2018_Oct_04_1239,Dissertation,59.81677428223845,
,,1,,,Verdadero,Falso,f,B,congruent_left,Carlos solo cultiva verduras en el jardín que tiene en casa,0,0,0,0,f,0,235,Carlos no compra muchas verduras en el supermercado.,,,,,,,,,,,,,,,,,,,,,,,,,0,0,0,0,0,19,19,34,,,,,,,,,,,,,,,,,,0.7682043349486776,0.7572404709644616,0.7682043349486776,0.4008719180128537,0.3722406000015326,1.1690762529615313,0.4009639220312238,0.3686668379814364,1.570040174992755,0.6351510149543174,0.6061135799973272,2.2051911899470724,0.9528320500394329,0.9249913360108621,3.1580232399865054,0.4169743949896656,0.3878732050070539,3.574997634976171,0.46810156299034134,0.438274595013354,4.043099197966512,0.3848604870145209,0.3524213820346631,4.427959684981033,0.31723254499956965,0.2884265150059946,4.745192229980603,0.3333949400112033,0.30514641699846834,5.078587169991806,0.284205848001875,0.25059060304192826,5.362793017993681,,,,,,,,,,,,,,,,,f,1,0.4535919100162573,j,0,2.0770991520257667,,,,,,,,,,,,,,,,None,None,,,,,,,,,,,,,9,001,4,2,2018_Oct_04_1239,Dissertation,59.81677428223845,
,,1,,,Verdadero,Falso,j,B,congruent_left,No aceptaron a las mujeres en el club por sus prejuicios,0,0,0,0,f,0,259,Las mujeres tenían muchos prejuicios.,,,,,,,,,,,,,,,,,,,,,,,,,0,0,0,0,0,20,20,58,,,,,,,,,,,,,,,,,,0.3508991089765914,0.3391611209954135,0.3508991089765914,0.3169213749933988,0.2861271630390547,0.6678204839699902,0.45123028301168233,0.42047187295975164,1.1190507669816725,0.30207143700681627,0.2691085940459743,1.4211222039884888,0.4177680329885334,0.38440380204701796,1.8388902369770221,0.533728735987097,0.49814018997130916,2.372618972964119,0.3681876609916799,0.33479696803260595,2.740806633955799,0.3339802950504236,0.30527707503642887,3.0747869290062226,0.4688146129483357,0.4394466160447337,3.5436015419545583,0.3338599420385435,0.3050694200210273,3.877461483993102,0.2510144999832846,0.22125500300899148,4.1284759839763865,,,,,,,,,,,,,,,,,f,1,0.4295356529764831,j,1,2.3274503449792974,,,,,,,,,,,,,,,,None,None,,,,,,,,,,,,,9,001,4,2,2018_Oct_04_1239,Dissertation,59.81677428223845,
,,0,,,Verdadero,Falso,j,B,incongruent_left,La maestra dejó la bebida que compró en su cartera durante la clase,0,1,1,0,f,0,113,La maestra tomaba la bebida mientras daba la lección.,,,,,,,,,,,,,,,,,,,,,,,,,0,0,0,0,0,21,21,26,,,,,,,,,,,,,,,,,,0.6158243890386075,0.5970276760053821,0.6158243890386075,0.28497271897504106,0.25524452701210976,0.9007971080136485,0.26708561700070277,0.23856591602088884,1.1678827250143513,0.3509341329918243,0.3228096580132842,1.5188168580061756,0.4180314320256002,0.3885600970243104,1.9368482900317758,0.4849668099777773,0.4562138299806975,2.421815100009553,0.3006080600316636,0.27286139503121376,2.7224231600412168,0.35112731996923685,0.32178430299973115,3.0735504800104536,0.35097447998123243,0.3217349969781935,3.424524959991686,0.2165523080038838,0.18799435498658568,3.64107726799557,0.25113547703949735,0.22285235300660133,3.892212745035067,0.517221204994712,0.48958876298274845,4.409433950029779,0.36741448496468365,0.3345733900205232,4.776848434994463,,,,,,,,,,,f,1,0.47019738401286304,j,1,2.141814144968521,,,,,,,,,,,,,,,,None,None,,,,,,,,,,,,,9,001,4,2,2018_Oct_04_1239,Dissertation,59.81677428223845,
,,1,,,Verdadero,Falso,f,A,congruent_right,The girl,0,0,0,0,j,0,312,a,,,,,,,,,,,,,,,,,,,,,,,,,0,0,0,0,0,22,22,71,,,,,,,,,,,,,,,,,,,,,,,,,,,,,,,,,,,,,,,,,,,,,,,,,,,,,,,,,,,,,,,,,,,j,1,0.4028580680023879,None,0,,,,,,,,,,,,,,,,,None,None,,,,,,,,,,,,,9,001,4,2,2018_Oct_04_1239,Dissertation,59.81677428223845,
,,0,,,Verdadero,Falso,f,B,single_left,Mi celular se me rompió cuando se me cayó al piso,0,0,0,1,f,0,252,Mi celular ya está roto.,,,,,,,,,,,,,,,,,,,,,,,,,0,0,0,0,0,23,23,51,,,,,,,,,,,,,,,,,,0.4516473680268973,0.44564333895687014,0.4516473680268973,0.2172231079894118,0.1886281900224276,0.6688704760163091,0.31778044695965946,0.28967544197803363,0.9866509229759686,0.5180795480264351,0.489137006981764,1.5047304710024036,0.417719101998955,0.38881265197414905,1.9224495730013587,0.3174195400206372,0.2849974579876289,2.239869113021996,0.4340432299650274,0.4015150769846514,2.6739123429870233,0.3680214750347659,0.3360030149924569,3.041933818021789,0.3670985329663381,0.3399147729505785,3.4090323509881273,0.23400752700399607,0.20421552698826417,3.6430398779921234,0.3503701629815623,0.32066331000532955,3.9934100409736857,,,,,,,,,,,,,,,,,f,1,0.40195795200997964,f,1,4.563500494987238,,,,,,,,,,,,,,,,None,None,,,,,,,,,,,,,9,001,4,2,2018_Oct_04_1239,Dissertation,59.81677428223845,
,,0,,,Verdadero,Falso,f,A,single_right,The girl,0,0,0,1,j,0,310,a,,,,,,,,,,,,,,,,,,,,,,,,,0,0,0,0,0,24,24,69,,,,,,,,,,,,,,,,,,,,,,,,,,,,,,,,,,,,,,,,,,,,,,,,,,,,,,,,,,,,,,,,,,,j,1,0.3555651200003922,None,0,,,,,,,,,,,,,,,,,None,None,,,,,,,,,,,,,9,001,4,2,2018_Oct_04_1239,Dissertation,59.81677428223845,
,,0,,,Verdadero,Falso,f,A,single_left,The girl,0,0,0,1,f,0,314,a,,,,,,,,,,,,,,,,,,,,,,,,,0,0,0,0,0,25,25,73,,,,,,,,,,,,,,,,,,,,,,,,,,,,,,,,,,,,,,,,,,,,,,,,,,,,,,,,,,,,,,,,,,,f,1,0.3889084330294281,None,0,,,,,,,,,,,,,,,,,None,None,,,,,,,,,,,,,9,001,4,2,2018_Oct_04_1239,Dissertation,59.81677428223845,
,,0,,,Verdadero,Falso,f,B,single_right,La casa de Enrique le quedó muy limpia antes de su fiesta,0,0,0,1,j,0,246,Enrique limpió la casa antes de recibir a los invitados.,,,,,,,,,,,,,,,,,,,,,,,,,0,0,0,0,0,26,26,45,,,,,,,,,,,,,,,,,,0.5334555330337025,0.5211704190005548,0.5334555330337025,0.40078960999380797,0.3714094530441798,0.9342451430275105,0.31744871800765395,0.2861990659730509,1.2516938610351644,0.3844162799650803,0.3541180449537933,1.6361101410002448,0.3522440670058131,0.32237415498821065,1.9883542080060579,0.36795806704321876,0.33520134998252615,2.3563122750492766,0.3842228679568507,0.35649970098165795,2.7405351430061273,0.4173098350293003,0.38834279001457617,3.1578449780354276,0.40140241698827595,0.37235063302796334,3.5592473950237036,0.334126767993439,0.3022857630276121,3.8933741630171426,0.36627686599968,0.3330292599857785,4.259651029016823,0.23405684699537233,0.2054962640395388,4.493707876012195,,,,,,,,,,,,,,j,1,0.32343687501270324,j,0,3.532840398955159,,,,,,,,,,,,,,,,None,None,,,,,,,,,,,,,9,001,4,2,2018_Oct_04_1239,Dissertation,59.81677428223845,
,,0,,,Verdadero,Falso,f,B,incongruent_left,Antes de que celebraran la leche se volvió agria,0,1,1,0,f,0,105,Van a tener que comprar más leche.,,,,,,,,,,,,,,,,,,,,,,,,,0,0,0,0,0,27,27,22,,,,,,,,,,,,,,,,,,0.48305391700705513,0.4717401979723945,0.48305391700705513,0.25156582496128976,0.22297811997123063,0.7346197419683449,0.2840920150047168,0.25668048503575847,1.0187117569730617,0.20030818501254544,0.17130415001884103,1.2190199419856071,0.4666301929973997,0.4361427460098639,1.6856501349830069,0.3175546560087241,0.2869915060000494,2.003204790991731,0.43488471902674064,0.40527446498163044,2.4380895100184716,0.78630047198385,0.7523446069681086,3.2243899820023216,0.6350484130089171,0.6066548699745908,3.8594383950112388,,,,,,,,,,,,,,,,,,,,,,,f,1,0.9216559549677186,f,1,6.001703167974483,,,,,,,,,,,,,,,,None,None,,,,,,,,,,,,,9,001,4,2,2018_Oct_04_1239,Dissertation,59.81677428223845,
,,0,,,Verdadero,Falso,j,B,incongruent_right,Nacho puso las monedas que traía en la sala cuando regresó a su casa,0,1,1,0,j,0,112,Nacho perdió todo su dinero en la calle.,,,,,,,,,,,,,,,,,,,,,,,,,0,0,0,0,0,28,28,25,,,,,,,,,,,,,,,,,,0.5337132230051793,0.517211343976669,0.5337132230051793,0.400703071965836,0.37196348496945575,0.9344162949710153,0.36814248003065586,0.33771666401298717,1.3025587750016712,0.26772298297146335,0.23997512902133167,1.5702817579731345,0.3173630320234224,0.2902602840331383,1.887644789996557,0.4010132749681361,0.3724004550022073,2.288658064964693,0.3166305110207759,0.2866925179841928,2.605288575985469,0.5350520639913157,0.5053913570009172,3.1403406399767846,0.38513051497284323,0.3563674599863589,3.525471154949628,0.5177383700502105,0.48903599195182323,4.043209524999838,0.3510500429547392,0.31779833702603355,4.3942595679545775,0.4329112800187431,0.4033994729979895,4.827170847973321,0.40185719000874087,0.3711259530391544,5.2290280379820615,,,,0.3351929049822502,0.305994271999225,5.564220942964312,,,,,j,1,0.7199344550026581,j,1,2.9117044280283153,,,,,,,,,,,,,,,,None,None,,,,,,,,,,,,,9,001,4,2,2018_Oct_04_1239,Dissertation,59.81677428223845,
,,1,,,Verdadero,Falso,j,B,congruent_left,Los novios tomaron vino durante la fiesta,0,0,0,0,f,0,247,Los novios sólo toman cerveza.,,,,,,,,,,,,,,,,,,,,,,,,,0,0,0,0,0,29,29,46,,,,,,,,,,,,,,,,,,0.5662695170030929,0.5551657429896295,0.5662695170030929,0.2846638500341214,0.25359575502807274,0.8509333670372143,0.23362461297074333,0.20099465700332075,1.0845579800079577,0.4502046250272542,0.4199559109983966,1.534762605035212,0.7197499169851653,0.6901241900050081,2.254512522020377,0.3343790979706682,0.3063964300090447,2.5888916199910454,0.38398412003880367,0.355019370035734,2.972875740029849,,,,,,,,,,,,,,,,,,,,,,,,,,,,,f,1,0.822562952991575,j,1,1.7428722170297988,,,,,,,,,,,,,,,,None,None,,,,,,,,,,,,,9,001,4,2,2018_Oct_04_1239,Dissertation,59.81677428223845,
,,0,,,Verdadero,Falso,j,B,incongruent_left,El barista vació el café que los clientes dejaron en el fregadero cuando dijeron que estaba feo,0,1,1,0,f,0,117,El barista no escuchó las quejas de los clientes.,,,,,,,,,,,,,,,,,,,,,,,,,0,0,0,0,0,30,30,28,,,,,,,,,,,,,,,,,,0.5001933689927682,0.477847914036829,0.5001933689927682,0.3851617270265706,0.35510629299096763,0.8853550960193388,0.23437903996091336,0.2059930499526672,1.1197341359802522,0.6680624129949138,0.6232844699989073,1.787796548975166,0.3845114950090647,0.3494057009811513,2.1723080439842306,0.3005374129861593,0.27170477696927264,2.47284545697039,0.4853922440088354,0.45583091699518263,2.9582377009792253,0.4012120630359277,0.3566316330106929,3.359449764015153,0.6858156449743547,0.64127634401666,4.045265408989508,0.40018859499832615,0.3684597249957733,4.445454003987834,0.41707788198255,0.3837977740331553,4.862531885970384,0.26700049301143736,0.23723698902176693,5.129532378981821,0.2677180980099365,0.23745439300546423,5.397250476991758,,,,0.5679191569797695,0.5376289390260354,5.965169633971527,,,,,f,1,0.502684228005819,f,0,4.799963989004027,,,,0.969517741992604,0.9240011880174279,6.934687375964131,0.33397909603081644,0.3000290209893137,7.268666471994948,0.40115306799998507,0.3707962679909542,7.669819539994933,,,,None,None,,,,,,,,,,,,,9,001,4,2,2018_Oct_04_1239,Dissertation,59.81677428223845,
,,1,,,Verdadero,Falso,f,A,congruent_right,The girl,0,0,0,0,j,0,308,a,,,,,,,,,,,,,,,,,,,,,,,,,0,0,0,0,0,31,31,67,,,,,,,,,,,,,,,,,,,,,,,,,,,,,,,,,,,,,,,,,,,,,,,,,,,,,,,,,,,,,,,,,,,j,1,0.3529645249946043,None,0,,,,,,,,,,,,,,,,,None,None,,,,,,,,,,,,,9,001,4,2,2018_Oct_04_1239,Dissertation,59.81677428223845,
,,1,,,Verdadero,Falso,j,B,congruent_left,Después de pintar su casa Julieta tuvo que limpiar,0,0,0,0,f,0,243,Las paredes de la casa están descoloridas. ,,,,,,,,,,,,,,,,,,,,,,,,,0,0,0,0,0,32,32,42,,,,,,,,,,,,,,,,,,0.5001392950071022,0.48834864899981767,0.5001392950071022,0.4521240080357529,0.4233537170221098,0.9522633030428551,0.2671486570034176,0.23814993997802958,1.2194119600462727,0.24985362496227026,0.22074468899518251,1.469265585008543,0.4356221180059947,0.40687966503901407,1.9048877030145377,0.2838575220084749,0.2549948320374824,2.1887452250230126,0.5342297679744661,0.5060895570204593,2.7229749929974787,0.30033411300973967,0.2705322459805757,3.0233091060072184,0.31835828203475103,0.2850815469864756,3.3416673880419694,,,,,,,,,,,,,,,,,,,,,,,f,1,0.48520362196723,j,1,3.6688390499912202,,,,,,,,,,,,,,,,None,None,,,,,,,,,,,,,9,001,4,2,2018_Oct_04_1239,Dissertation,59.81677428223845,
,,1,,,Verdadero,Falso,f,B,congruent_right,Después de que corrí el maratón no me parecía tan imposible,1,1,0,0,j,0,21,Me sentí mejor corriendo el maratón que anticipaba.,,,,,,,,,,,,,,,,,,,,,,,,,0,0,0,0,0,33,33,0,,,,,,,,,,,,,,,,,,0.5354131410131231,0.5335988309816457,0.5354131410131231,0.20109634997788817,0.15564986504614353,0.7365094909910113,0.38389948499388993,0.35153658501803875,1.1204089759849012,0.33419381303247064,0.30461952497716993,1.4546027890173718,0.43463119998341426,0.40595804498298094,1.889233989000786,0.41747795697301626,0.3881395899807103,2.3067119459738024,0.2504454140434973,0.2205997590208426,2.5571573600172997,0.43502216396154836,0.40534797200234607,2.992179523978848,0.40071666502626613,0.3712523600552231,3.392896189005114,0.2500833119847812,0.21855742199113593,3.6429795009898953,0.4021700600278564,0.3723246429581195,4.045149561017752,,,,,,,,,,,,,,,,,j,1,0.3387550300103612,f,1,2.9581918580224738,,,,,,,,,,,,,,,,None,None,,,,,,,,,,,,,9,001,4,2,2018_Oct_04_1239,Dissertation,59.81677428223845,
,,1,,,Verdadero,Falso,f,A,congruent_left,The girl,0,0,0,0,f,0,303,a,,,,,,,,,,,,,,,,,,,,,,,,,0,0,0,0,0,34,34,62,,,,,,,,,,,,,,,,,,,,,,,,,,,,,,,,,,,,,,,,,,,,,,,,,,,,,,,,,,,,,,,,,,,f,1,0.3706614699913189,None,0,,,,,,,,,,,,,,,,,None,None,,,,,,,,,,,,,9,001,4,2,2018_Oct_04_1239,Dissertation,59.81677428223845,
,,0,,,Verdadero,Falso,j,B,single_left,Linda hace un paseo en las montañas todos los sábados,0,0,0,1,f,0,236,A Linda no le gusta la naturaleza.,,,,,,,,,,,,,,,,,,,,,,,,,0,0,0,0,0,35,35,35,,,,,,,,,,,,,,,,,,0.3666990799829364,0.355088384996634,0.3666990799829364,0.40086734702344984,0.37366997299250215,0.7675664270063862,0.30104023800231516,0.26820199500070885,1.0686066650087014,0.38432179001392797,0.3565649099764414,1.4529284550226294,0.334202911995817,0.3073095200234093,1.7871313670184463,0.4340033199987374,0.4068835430080071,2.2211346870171838,0.33459232799941674,0.30594507802743465,2.5557270150166005,0.634173706988804,0.6049745519994758,3.1899007220054045,0.4017596030025743,0.3713440930005163,3.591660325007979,0.3678616469842382,0.3383350200019777,3.959521971992217,,,,,,,,,,,,,,,,,,,,f,1,0.6066926450002939,j,1,1.4375513729755767,,,,,,,,,,,,,,,,None,None,,,,,,,,,,,,,9,001,4,2,2018_Oct_04_1239,Dissertation,59.81677428223845,
,,0,,,Verdadero,Falso,f,A,single_left,The girl,0,0,0,1,f,0,309,a,,,,,,,,,,,,,,,,,,,,,,,,,0,0,0,0,0,36,36,68,,,,,,,,,,,,,,,,,,,,,,,,,,,,,,,,,,,,,,,,,,,,,,,,,,,,,,,,,,,,,,,,,,,f,1,0.4880284999962896,None,0,,,,,,,,,,,,,,,,,None,None,,,,,,,,,,,,,9,001,4,2,2018_Oct_04_1239,Dissertation,59.81677428223845,
,,0,,,Verdadero,Falso,f,B,single_right,Los meseros preparan las verduras en la cocina antes de servirlas,0,0,0,1,j,0,234,Los meseros lavan las verduras.,,,,,,,,,,,,,,,,,,,,,,,,,0,0,0,0,0,37,37,33,,,,,,,,,,,,,,,,,,0.41666771000018343,0.4038443570025265,0.41666771000018343,0.3836107000242919,0.3545783119625412,0.8002784100244753,0.2684073429554701,0.23555703996680677,1.0686857529799454,0.6518572900095023,0.6225826250156388,1.7205430429894477,0.4344479470164515,0.40546925499802455,2.154990990005899,0.718755064997822,0.6894949450506829,2.8737460550037213,0.4179771179915406,0.3857627550023608,3.291723172995262,0.23371566698187962,0.20720492996042594,3.5254388399771415,0.4005465980153531,0.37250640999991447,3.9259854379924946,0.4676868949900381,0.4369619089993648,4.393672332982533,0.26758677704492584,0.23842798202531412,4.6612591100274585,,,,,,,,,,,,,,,,,j,1,0.3210507680196315,f,1,3.582004930009134,,,,,,,,,,,,,,,,None,space,,,,,,,16.86863394198008,,,,,,9,001,4,2,2018_Oct_04_1239,Dissertation,59.81677428223845,
,,0,,,Verdadero,Falso,j,B,incongruent_left,Los chicos pusieron el pollo que su mamá preparó en el horno en la mesa antes de comer,1,1,1,0,f,1,39,La mamá preparó la comida en la mesa.,,,,,,,,,,,,,,,,,,,,,,,,,0,0,0,0,0,38,38,18,,,,,,,,,,,,,,,,,,0.5331146880052984,0.5100947830360383,0.5331146880052984,0.4011033650022,0.36859745800029486,0.9342180530074984,0.48567821696633473,0.4539631419465877,1.4198962699738331,0.6013418849906884,0.5699285050504841,2.0212381549645215,0.2659884080057964,0.23458927299361676,2.287226562970318,0.3022502569947392,0.27154485997743905,2.589476819965057,0.4510229449952021,0.4225225580157712,3.040499764960259,0.48444400500738993,0.4550471929833293,3.524943769967649,0.3843379149911925,0.3517684329999611,3.9092816849588417,0.5681341580348089,0.5392974030110054,4.477415842993651,0.33458429999882355,0.3061314800288528,4.812000142992474,0.2673626149771735,0.24000248196534812,5.079362757969648,0.3675353400176391,0.33930727298138663,5.446898097987287,,,,0.41778138699010015,0.39136365498416126,5.864679484977387,,,,,f,1,0.5563415550277568,j,1,2.9782878879923373,,,,0.2844766449998133,0.2556898249895312,6.1491561299772,0.3329490580363199,0.30037026602076367,6.48210518801352,0.3015979849733412,0.27163289999589324,6.783703172986861,0.2842878099763766,0.2553532699821517,7.067990982963238,None,None,,,,,,,,,,,,,9,001,4,2,2018_Oct_04_1239,Dissertation,59.81677428223845,
,,0,,,Verdadero,Falso,f,B,single_left,Los pasteles en la cocina de los Menéndez son para la fiesta de cumpleaños,0,0,0,1,f,0,232,Los Menéndez van a una fiesta.,,,,,,,,,,,,,,,,,,,,,,,,,0,0,0,0,0,39,39,31,,,,,,,,,,,,,,,,,,0.4834261279902421,0.47001120797358453,0.4834261279902421,0.4180703550227918,0.3882680319948122,0.9014964830130339,0.4849139170255512,0.4557327500078827,1.386410400038585,0.284157192974817,0.25521467003272846,1.670567593013402,0.20024345198180526,0.1713173349853605,1.8708110449952073,0.3167279180488549,0.28654096595710143,2.1875389630440623,0.402261096984148,0.37314350000815466,2.5898000600282103,0.4002849129610695,0.3713190599810332,2.9900849729892798,0.7519909220281988,0.7192551920306869,3.7420758950174786,0.41747361002489924,0.38749617198482156,4.159549505042378,0.35179129999596626,0.3222469500033185,4.511340805038344,0.3175076899933629,0.28941418998874724,4.828848495031707,0.26732257497496903,0.23869999003363773,5.096171070006676,,,,0.2840055900160223,0.25223586201900616,5.380176660022698,,,,,f,1,0.7551378649659455,f,1,1.6752733319881372,,,,,,,,,,,,,,,,None,None,,,,,,,,,,,,,9,001,4,2,2018_Oct_04_1239,Dissertation,59.81677428223845,
,,0,,,Verdadero,Falso,f,A,single_left,The girl,0,0,0,1,f,0,305,a,,,,,,,,,,,,,,,,,,,,,,,,,0,0,0,0,0,40,40,64,,,,,,,,,,,,,,,,,,,,,,,,,,,,,,,,,,,,,,,,,,,,,,,,,,,,,,,,,,,,,,,,,,,f,1,0.4033334580017254,None,0,,,,,,,,,,,,,,,,,None,None,,,,,,,,,,,,,9,001,4,2,2018_Oct_04_1239,Dissertation,59.81677428223845,
,,0,,,Verdadero,Falso,f,B,incongruent_right,Antes de servir la comida el mesero rellenó las copas,0,0,1,0,j,0,245,El mesero era muy atento con los clientes.,,,,,,,,,,,,,,,,,,,,,,,,,0,0,0,0,0,41,41,44,,,,,,,,,,,,,,,,,,0.3667451849905774,0.3551252860343084,0.3667451849905774,0.403290644986555,0.3744416700210422,0.7700358299771324,0.19849921797867864,0.17143712798133492,0.968535047955811,0.2661801650538109,0.2377821349655278,1.234715213009622,0.38494426995748654,0.3509788229712285,1.6196594829671085,0.4346456819912419,0.4055271120159887,2.0543051649583504,0.8360483050346375,0.8070553599973209,2.890353469992988,0.4507681899704039,0.4184268599492498,3.3411216599633917,0.4840836980147287,0.45482923998497427,3.8252053579781204,0.4185873520327732,0.38521276297979057,4.243792710010894,,,,,,,,,,,,,,,,,,,,j,1,0.5892396869603544,f,1,1.84190746297827,,,,,,,,,,,,,,,,None,None,,,,,,,,,,,,,9,001,4,2,2018_Oct_04_1239,Dissertation,59.81677428223845,
,,1,,,Verdadero,Falso,f,B,congruent_left,Cuando la participante adivinó la respuesta apareció en la pantalla,1,1,0,0,f,0,28,La participante está en un concurso.,,,,,,,,,,,,,,,,,,,,,,,,,0,0,0,0,0,42,42,7,,,,,,,,,,,,,,,,,,0.514839110954199,0.5010544499964453,0.514839110954199,0.23411706101614982,0.18659694504458457,0.7489561719703488,0.7686082129948772,0.7690124799846672,1.517564384965226,0.45121415302855894,0.38895742903696373,1.968778537993785,0.3850905889994465,0.3566267159767449,2.3538691269932315,0.38437221496133134,0.34189487498952076,2.738241341954563,0.349976203055121,0.3208020430174656,3.088217545009684,0.5340948739903979,0.5231040719663724,3.6223124190000817,0.28465036395937204,0.22161942603997886,3.9069627829594538,0.26746814203215763,0.22161046497058123,4.174430924991611,,,,,,,,,,,,,,,,,,,,f,1,0.3894209239515476,j,0,3.946815838047769,,,,,,,,,,,,,,,,None,None,,,,,,,,,,,,,9,001,4,2,2018_Oct_04_1239,Dissertation,59.81677428223845,
,,1,,,Verdadero,Falso,f,B,congruent_left,Las chicas acomodaron la ropa que sus padres les dejaron en su cuarto dentro del clóset antes de dormir,1,1,0,0,f,0,36,Los padres doblaron la ropa para sus hijas.,,,,,,,,,,,,,,,,,,,,,,,,,0,0,0,0,0,43,43,15,,,,,,,,,,,,,,,,,,0.4835863200132735,0.4557362819905393,0.4835863200132735,0.36793400294845924,0.3401441950118169,0.8515203229617327,0.30097884504357353,0.2682963350089267,1.1524991680053063,0.33397888496983796,0.3011940800352022,1.4864780529751442,0.8181347000063397,0.7892117750016041,2.304612752981484,0.7015748579869978,0.6561627489863895,3.0061876109684817,0.33420827303780243,0.2879576929844916,3.340395884006284,0.5193067389773205,0.4734563229721971,3.8597026229836047,0.4830306399962865,0.43792375904740766,4.342733262979891,0.3023035670048557,0.256843748036772,4.645036829984747,0.26763294299598783,0.23902504000579938,4.912669772980735,0.4171034099999815,0.377301272994373,5.329773182980716,0.2511193469981663,0.20141420501749963,5.5808925299788825,,,,0.30069268302759156,0.27173869003308937,5.881585213006474,,,,,f,1,0.3976259670453146,f,1,4.0323062899988145,,,,0.484784044965636,0.4562943369965069,6.36636925797211,0.29980975203216076,0.2713479429949075,6.666179010004271,0.40207126300083473,0.37204546004068106,7.0682502730051056,0.6007390969898552,0.5719067669706419,7.668989369994961,None,None,0.2512002650182694,0.22264562302734703,7.92018963501323,,,,,,,,,,9,001,4,2,2018_Oct_04_1239,Dissertation,59.81677428223845,
,,0,,,Verdadero,Falso,j,B,single_right,El chico guapo está bien solo ,0,0,0,1,j,0,258,El chico está contento sin novia.,,,,,,,,,,,,,,,,,,,,,,,,,0,0,0,0,0,44,44,57,,,,,,,,,,,,,,,,,,0.4838172100135125,0.47603278001770377,0.4838172100135125,0.3840876729809679,0.35693776997504756,0.8679048829944804,0.6851671900367364,0.6563063050271012,1.5530720730312169,1.220004027010873,1.192011986975558,2.77307610004209,0.3183392380014993,0.29000271699624136,3.091415338043589,0.299923931946978,0.2717983850161545,3.391339269990567,,,,,,,,,,,,,,,,,,,,,,,,,,,,,,,,j,1,0.3793591450084932,f,0,2.845374254975468,,,,,,,,,,,,,,,,None,None,,,,,,,,,,,,,9,001,4,2,2018_Oct_04_1239,Dissertation,59.81677428223845,
,,1,,,Verdadero,Falso,f,A,congruent_right,The girl,0,0,0,0,j,0,304,a,,,,,,,,,,,,,,,,,,,,,,,,,0,0,0,0,0,45,45,63,,,,,,,,,,,,,,,,,,,,,,,,,,,,,,,,,,,,,,,,,,,,,,,,,,,,,,,,,,,,,,,,,,,j,1,0.3730503950500861,None,0,,,,,,,,,,,,,,,,,None,None,,,,,,,,,,,,,9,001,4,2,2018_Oct_04_1239,Dissertation,59.81677428223845,
,,1,,,Verdadero,Falso,j,B,congruent_right,Mientras el maestro tocaba el violín resonaba por todo el salón,1,1,0,0,j,0,25,El maestro tocaba el piano.,,,,,,,,,,,,,,,,,,,,,,,,,0,0,0,0,0,46,46,4,,,,,,,,,,,,,,,,,,0.5171898899716325,0.5044884550152346,0.5171898899716325,0.31635996903060004,0.28580184502061456,0.8335498590022326,0.2675233039772138,0.2368089550291188,1.1010731629794464,0.7019195869797841,0.6711227890336886,1.8029927499592304,1.087807005038485,1.0592753760283813,2.8907997549977154,0.3999579600058496,0.37216228304896504,3.290757715003565,0.26851067796815187,0.23856756498571485,3.559268392971717,0.8686095270095393,0.8406294879969209,4.427877919981256,0.4180970849702135,0.39023045799694955,4.84597500495147,0.36748338502366096,0.33848372497595847,5.213458389975131,0.30102136998903006,0.2724295320222154,5.514479759964161,,,,,,,,,,,,,,,,,j,1,0.37079690099926665,j,1,1.192124196968507,,,,,,,,,,,,,,,,None,None,,,,,,,,,,,,,9,001,4,2,2018_Oct_04_1239,Dissertation,59.81677428223845,
,,0,,,Verdadero,Falso,j,B,incongruent_left,Antes de comer el pastel los niños cantaron "Cumpleaños Feliz",0,0,1,0,f,0,239,El pastel era para el final del curso.,,,,,,,,,,,,,,,,,,,,,,,,,0,0,0,0,0,47,47,38,,,,,,,,,,,,,,,,,,0.550909106968902,0.5347601919784211,0.550909106968902,0.21732088999124244,0.18864154996117577,0.7682299969601445,0.33498505305033177,0.3053570929914713,1.1032150500104763,0.29892362596001476,0.2712422790355049,1.402138675970491,0.33467990602366626,0.30460898799356073,1.7368185819941573,0.2848254799610004,0.2562276949756779,2.0216440619551577,0.7674755930202082,0.7396114339935593,2.789119654975366,0.41764456703094766,0.38640078104799613,3.2067642220063135,0.3183536339784041,0.28778079099720344,3.5251178559847176,0.6858048139838502,0.65397359902272,4.210922669968568,,,,,,,,,,,,,,,,,,,,f,1,0.7893213399802335,j,1,1.854959967022296,,,,,,,,,,,,,,,,None,None,,,,,,,,,,,,,9,001,4,2,2018_Oct_04_1239,Dissertation,59.81677428223845,
,,0,,,Verdadero,Falso,f,B,incongruent_right,Siempre que la niña juega la pelota le da por la cabeza,0,1,1,0,j,0,104,La niña es un poco torpe.,,,,,,,,,,,,,,,,,,,,,,,,,0,0,0,0,0,48,48,21,,,,,,,,,,,,,,,,,,0.3503037770278752,0.33595631195930764,0.3503037770278752,0.26754126796731725,0.23788204696029425,0.6178450449951924,0.2667196900001727,0.23744405497564003,0.8845647349953651,0.31849747203523293,0.28883490298176184,1.203062207030598,0.30039492796640843,0.27543578296899796,1.5034571349970065,0.4167936519952491,0.38721154700033367,1.9202507869922556,0.36850131500978023,0.33815917297033593,2.288752102002036,0.6519350549788214,0.6237507750047371,2.9406871569808573,0.41803069005254656,0.3896819449728355,3.358717847033404,0.4674638229771517,0.438939802988898,3.8261816700105555,0.3173242370248772,0.2888869849848561,4.143505907035433,0.317134749959223,0.2884300999576226,4.460640656994656,,,,,,,,,,,,,,f,0,0.3502527570235543,f,1,3.2105132800061256,,,,,,,,,,,,,,,,None,None,,,,,,,,,,,,,9,001,4,2,2018_Oct_04_1239,Dissertation,59.81677428223845,
,,0,,,Verdadero,Falso,f,B,single_left,La estudiante lista adivinó la respuesta correcta primero,0,0,0,1,f,0,248,La estudiante fue la primera en responder. ,,,,,,,,,,,,,,,,,,,,,,,,,0,0,0,0,0,49,49,47,,,,,,,,,,,,,,,,,,0.46688514802372083,0.4546248719561845,0.46688514802372083,0.28340259700780734,0.2549373249639757,0.7502877450315282,0.2672608299762942,0.2386674979934469,1.0175485750078224,0.41768892004620284,0.3836377509869635,1.4352374950540252,1.3553066929453053,1.3272140229819342,2.7905441879993305,1.402938190032728,1.3763694749795832,4.1934823780320585,0.6517032869742252,0.6200360599905252,4.845185665006284,0.4351280350238085,0.4060581829980947,5.280313700030092,,,,,,,,,,,,,,,,,,,,,,,,,,f,1,0.40410970902303234,f,1,2.4749868329963647,,,,,,,,,,,,,,,,None,None,,,,,,,,,,,,,9,001,4,2,2018_Oct_04_1239,Dissertation,59.81677428223845,
,,0,,,Verdadero,Falso,j,B,single_left,Siempre que da un concierto la artista canta sus canciones más conocidas,0,0,0,1,f,0,240,La artista siempre canta sus canciones recien salidas.,,,,,,,,,,,,,,,,,,,,,,,,,0,0,0,0,0,50,50,39,,,,,,,,,,,,,,,,,,0.48507784702815115,0.469575610011816,0.48507784702815115,0.21702504000859335,0.18417931196745485,0.7021028870367445,0.3010144049767405,0.26795070996740833,1.003117292013485,0.284264060028363,0.25589962798403576,1.287381352041848,0.3340290999622084,0.30591092503163964,1.6214104520040564,0.31745046202559024,0.2894983579753898,1.9388609140296467,0.36761337000643834,0.33896164497127756,2.306474284036085,0.5182021429645829,0.4726957050152123,2.824676427000668,0.25049139198381454,0.2218876719707623,3.0751678189844824,0.4663444100297056,0.4366842479794286,3.541512229014188,0.9530015829950571,0.9231604270171374,4.494513812009245,0.5695342000108212,0.5404002270079218,5.064048012020066,,,,,,,,,,,,,,f,1,0.3722418280085549,j,1,2.5969826399814337,,,,,,,,,,,,,,,,None,None,,,,,,,,,,,,,9,001,4,2,2018_Oct_04_1239,Dissertation,59.81677428223845,
,,1,,,Verdadero,Falso,j,B,congruent_right,La obra de teatro se presentó en el salón de conciertos,0,0,0,0,j,0,253,Los actores presentaron en un anfiteatro.,,,,,,,,,,,,,,,,,,,,,,,,,0,0,0,0,0,51,51,52,,,,,,,,,,,,,,,,,,0.6333233030163683,0.6134232809999958,0.6333233030163683,0.3503541550016962,0.3213972270023078,0.9836774580180645,0.568046658008825,0.5389292009640485,1.5517241160268895,0.518491744005587,0.4885277079883963,2.0702158600324765,0.4344948349753395,0.4040381420054473,2.504710695007816,0.31690042099216953,0.286369172972627,2.8216111159999855,0.25105701404390857,0.21827877702889964,3.072668130043894,0.3183199900086038,0.2894558770349249,3.390988120052498,0.40101153997238725,0.37146394996671006,3.791999660024885,0.3675937179941684,0.3430862500099465,4.1595933780190535,0.4183313199901022,0.37206692702602595,4.577924698009156,,,,,,,,,,,,,,,,,j,1,0.3216864819987677,j,1,1.743012249993626,,,,,,,,,,,,,,,,None,None,,,,,,,,,,,,,9,001,4,2,2018_Oct_04_1239,Dissertation,59.81677428223845,
,,0,,,Verdadero,Falso,f,B,incongruent_left,Cuando la chica cena los platos terminan muy sucios,0,1,1,0,f,0,109,La chica come de manera descuidada.  ,,,,,,,,,,,,,,,,,,,,,,,,,0,0,0,0,0,52,52,24,,,,,,,,,,,,,,,,,,0.5166337550035678,0.5054900100221857,0.5166337550035678,0.2503633330343291,0.2167054659803398,0.7669970880378969,0.2505072350031696,0.23710214998573065,1.0175043230410665,0.402694531949237,0.3697923540021293,1.4201988549903035,0.2670748850214295,0.2381763099692762,1.687273740011733,0.3840966279967688,0.3541180249885656,2.071370368008502,0.3345539000001736,0.3088902049930766,2.4059242680086754,0.5182741369935684,0.4888383049983531,2.924198405002244,0.3343842279864475,0.3012462529586628,3.2585826329886913,,,,,,,,,,,,,,,,,,,,,,,f,1,0.48988754500169307,f,1,6.572230820020195,,,,,,,,,,,,,,,,None,None,,,,,,,,,,,,,9,001,4,2,2018_Oct_04_1239,Dissertation,59.81677428223845,
,,0,,,Verdadero,Falso,f,B,incongruent_right,Cuando mi madre ayudaba la ropa salía de la lavadora manchada,0,1,1,0,j,0,108,Mi madre arruinó mucha ropa. ,,,,,,,,,,,,,,,,,,,,,,,,,0,0,0,0,0,53,53,23,,,,,,,,,,,,,,,,,,0.43467310001142323,0.4209843670250848,0.43467310001142323,0.48524386499775574,0.4389800550416112,0.919916965009179,0.3335062579717487,0.30465286294929683,1.2534232229809277,0.300446447043214,0.272829154971987,1.5538696700241417,0.5860380549565889,0.5523266919772141,2.1399077249807306,0.3842337100068107,0.35197960503865033,2.5241414349875413,0.4505917330388911,0.4216477519948967,2.9747331680264324,1.1868360619992018,1.159368602966424,4.161569230025634,0.400555455009453,0.3719090960221365,4.562124685035087,0.30105178797384724,0.271633647964336,4.863176473008934,0.25068012200063094,0.2218969599925913,5.113856595009565,,,,,,,,,,,,,,,,,j,1,0.404607015021611,j,0,3.3318173319566995,,,,,,,,,,,,,,,,None,None,,,,,,,,,,,,,9,001,4,2,2018_Oct_04_1239,Dissertation,59.81677428223845,
,,0,,,Verdadero,Falso,f,A,single_right,The girl,0,0,0,1,j,0,302,a,,,,,,,,,,,,,,,,,,,,,,,,,0,0,0,0,0,54,54,61,,,,,,,,,,,,,,,,,,,,,,,,,,,,,,,,,,,,,,,,,,,,,,,,,,,,,,,,,,,,,,,,,,,j,1,0.35627441300312057,None,0,,,,,,,,,,,,,,,,,None,None,,,,,,,,,,,,,9,001,4,2,2018_Oct_04_1239,Dissertation,59.81677428223845,
,,0,,,Verdadero,Falso,j,B,single_left,Cuando era niño mi papá quería ser arquitecto,0,0,0,1,f,0,244,Mi papá quería ser mecánico cuando era menor.,,,,,,,,,,,,,,,,,,,,,,,,,0,0,0,0,0,55,55,43,,,,,,,,,,,,,,,,,,0.3497069519944489,0.33916708297329023,0.3497069519944489,0.2833321950165555,0.25367280800128356,0.6330391470110044,0.3683806100161746,0.3383433749550022,1.001419757027179,0.36742669000523165,0.3400660829502158,1.3688464470324107,0.3011340649682097,0.2679739099694416,1.6699805120006204,0.23387356800958514,0.2049295799806714,1.9038540800102055,0.5676696369773708,0.5379829130251892,2.4715237169875763,0.4518437080550939,0.42199447500752285,2.92336742504267,,,,,,,,,,,,,,,,,,,,,,,,,,f,1,0.3870207939762622,j,1,1.793039733020123,,,,,,,,,,,,,,,,None,None,,,,,,,,,,,,,9,001,4,2,2018_Oct_04_1239,Dissertation,59.81677428223845,
,,0,,,Verdadero,Falso,j,B,incongruent_left,Después de que hablaron el helado se derritió rápido,0,1,1,0,f,0,101,Hacía mucho frío.,,,,,,,,,,,,,,,,,,,,,,,,,0,0,0,0,0,56,56,20,,,,,,,,,,,,,,,,,,0.48374113999307156,0.4734966169926338,0.48374113999307156,0.26672656496521086,0.2383234309963882,0.7504677049582824,0.23425123002380133,0.2054696650011465,0.9847189349820837,0.2511402149684727,0.22185697697568685,1.2358591499505565,0.5007370480452664,0.47173524304525927,1.7365961979958229,0.3346754069789313,0.30582948302617297,2.071271604974754,0.3339905900065787,0.3049737819819711,2.405262194981333,0.7526079950039275,0.719808723020833,3.1578701899852604,0.6846745479851961,0.655870619986672,3.8425447379704565,,,,,,,,,,,,,,,,,,,,,,,f,1,0.6259205599781126,j,1,1.5061119530000724,,,,,,,,,,,,,,,,None,None,,,,,,,,,,,,,9,001,4,2,2018_Oct_04_1239,Dissertation,59.81677428223845,
,,0,,,Verdadero,Falso,j,B,incongruent_right,Mientras el novio pagaba el diamante se le cayó al piso,1,1,1,0,j,1,26,La esposa dejó caer el diamante al piso.,,,,,,,,,,,,,,,,,,,,,,,,,0,0,0,0,0,57,57,5,,,,,,,,,,,,,,,,,,0.734173302014824,0.7229603939922526,0.734173302014824,0.4341817430104129,0.4008838100126013,1.168355045025237,0.21836126496782526,0.18469978700159118,1.3867163099930622,0.2504753520479426,0.21783064299961552,1.6371916620410047,0.5011538229882717,0.47194948297692463,2.1383454850292765,0.36792626697570086,0.3383901519700885,2.5062717520049773,0.41774540004553273,0.37274939799681306,2.92401715205051,0.3509931349544786,0.32217806798871607,3.2750102870049886,0.43387811502907425,0.4054948650300503,3.708888402034063,0.3682244080118835,0.3394530240329914,4.077112810045946,0.367445814947132,0.33914267702493817,4.444558624993078,,,,,,,,,,,,,,,,,j,1,0.4355376749881543,j,1,3.665105560037773,,,,,,,,,,,,,,,,None,None,,,,,,,,,,,,,9,001,4,2,2018_Oct_04_1239,Dissertation,59.81677428223845,
,,0,,,Verdadero,Falso,j,B,incongruent_right,El grupo musical que tocó en el salón de conciertos era muy bueno,0,0,1,0,j,0,233,El grupo no tocaba bien.,,,,,,,,,,,,,,,,,,,,,,,,,0,0,0,0,0,58,58,32,,,,,,,,,,,,,,,,,,0.5836024199961685,0.5585774250212125,0.5836024199961685,0.2504014699952677,0.2209848199854605,0.8340038899914362,0.2342764270142652,0.20094598201103508,1.0682803170057014,0.3671744500170462,0.33808107301592827,1.4354547670227475,0.28433584596496075,0.2515187510289252,1.7197906129877083,0.3007700589951128,0.2710843599634245,2.020560671982821,0.36810871498892084,0.33810217201244086,2.388669386971742,0.3341821550275199,0.3050533800269477,2.722851541999262,0.35058313800254837,0.3214797580149025,3.07343468000181,0.33484217699151486,0.30561030498938635,3.408276856993325,0.31707687000744045,0.2878434169688262,3.7253537270007655,0.35097284498624504,0.3227096719783731,4.0763265719870105,0.2843895750120282,0.2552778419922106,4.360716146999039,,,,,,,,,,,j,1,1.0568396100425161,j,1,1.1751842650119215,,,,,,,,,,,,,,,,None,None,,,,,,,,,,,,,9,001,4,2,2018_Oct_04_1239,Dissertation,59.81677428223845,
,,0,,,Verdadero,Falso,f,B,single_left,La estudiante se encontró con su profesora para calmar su preocupación ,0,0,0,1,f,0,260,La profesora estaba muy preocupada.,,,,,,,,,,,,,,,,,,,,,,,,,0,0,0,0,0,59,59,59,,,,,,,,,,,,,,,,,,0.41690280701732263,0.4033267599879764,0.41690280701732263,0.21702923299744725,0.184736504976172,0.6339320400147699,0.23387254198314622,0.20487720298115164,0.8678045819979161,0.40177502000005916,0.37282305501867086,1.2695796019979753,0.2336395049933344,0.20549895794829354,1.5032191069913097,0.3335563630098477,0.3050300950417295,1.8367754700011574,0.3016056549968198,0.27171830303268507,2.138381124997977,0.43447745201410726,0.4067252720124088,2.5728585770120844,0.28338442801032215,0.2541668320191093,2.8562430050224066,0.300925970019307,0.26855440897634253,3.1571689750417136,0.3682984599727206,0.33939641003962606,3.525467435014434,,,,,,,,,,,,,,,,,f,1,0.4019266850082204,j,0,1.8599898149841465,,,,,,,,,,,,,,,,None,None,,,,,,,,,,,,,9,001,4,2,2018_Oct_04_1239,Dissertation,59.81677428223845,
,,0,,,Verdadero,Falso,f,A,single_right,The girl,0,0,0,1,j,0,306,a,,,,,,,,,,,,,,,,,,,,,,,,,0,0,0,0,0,60,60,65,,,,,,,,,,,,,,,,,,,,,,,,,,,,,,,,,,,,,,,,,,,,,,,,,,,,,,,,,,,,,,,,,,,j,1,0.3343077979516238,None,0,,,,,,,,,,,,,,,,,None,None,,,,,,,,,,,,,9,001,4,2,2018_Oct_04_1239,Dissertation,59.81677428223845,
,,0,,,Verdadero,Falso,j,B,incongruent_right,Después de que la arquitecta empezó los planos se volvieron más sencillos,1,1,1,0,j,1,22,Los planos siempre fueron muy sencillos.,,,,,,,,,,,,,,,,,,,,,,,,,0,0,0,0,0,61,61,1,,,,,,,,,,,,,,,,,,0.5176084950217046,0.5049058750155382,0.5176084950217046,0.21671216998947784,0.18856263195630163,0.7343206650111824,0.2672573499730788,0.23745012294966727,1.0015780149842612,0.24962268903618678,0.21841900201980025,1.251200704020448,0.5022372959647328,0.4719515169854276,1.7534379999851808,0.3843647050089203,0.3545195229817182,2.137802704994101,0.4185468750074506,0.38898948999121785,2.5563495800015517,0.3673587999655865,0.3355089830001816,2.923708379967138,0.5847343280329369,0.5553044219850563,3.508442708000075,0.2672557749901898,0.23833708796883002,3.775698482990265,0.5684760399744846,0.5388234019628726,4.3441745229647495,0.35153194703161716,0.3228303630021401,4.695706469996367,,,,,,,,,,,,,,j,1,0.538993260008283,f,0,3.5604276479571126,,,,,,,,,,,,,,,,None,None,,,,,,,,,,,,,9,001,4,2,2018_Oct_04_1239,Dissertation,59.81677428223845,
,,1,,,Verdadero,Falso,j,B,congruent_left,La arquitecta guardó los planos en su bolsa,0,0,0,0,f,0,231,Los planos están en el archivero.,,,,,,,,,,,,,,,,,,,,,,,,,0,0,0,0,0,62,62,30,,,,,,,,,,,,,,,,,,0.5172319269622676,0.505270982044749,0.5172319269622676,0.3340730600175448,0.30150775000220165,0.8513049869798124,0.20043442997848615,0.1707862470066175,1.0517394169582985,0.40117767301853746,0.37230293499305844,1.452917089976836,0.36784472002182156,0.3385474599781446,1.8207618099986576,0.4677540870034136,0.43844613002147526,2.288515897002071,0.2671694780001417,0.23797219002153724,2.555685375002213,0.31764576997375116,0.2891499949619174,2.873331144975964,,,,,,,,,,,,,,,,,,,,,,,,,,f,1,0.43220423703314736,j,1,2.595755536982324,,,,,,,,,,,,,,,,None,None,,,,,,,,,,,,,9,001,4,2,2018_Oct_04_1239,Dissertation,59.81677428223845,
,,0,,,Verdadero,Falso,j,B,incongruent_right,Las artistas colocaron el cuadro que su colega dejó en la pared en la oficina privada antes de su exhibición,1,1,1,0,j,1,38,La galería de arte estaba vacía cuando las artistas llegaron.,,,,,,,,,,,,,,,,,,,,,,,,,0,0,0,0,0,63,63,17,,,,,,,,,,,,,,,,,,0.39949340000748634,0.38068149000173435,0.39949340000748634,0.4188403070438653,0.38934857299318537,0.8183337070513517,0.23350597295211628,0.2051816099556163,1.051839680003468,0.3343545950483531,0.30156445200555027,1.386194275051821,0.46714023198001087,0.4385154820047319,1.853334507031832,0.3681112679769285,0.33884705300442874,2.2214457750087604,0.4849532200023532,0.4521341650397517,2.7063989950111136,0.5350924800150096,0.5068516199826263,3.2414914750261232,0.7679662500158884,0.72452259802958,4.009457725042012,0.4006783000077121,0.37183213798562065,4.410136025049724,0.35146855196217075,0.3210908999899402,4.761604577011894,0.2510588529985398,0.22233324497938156,5.012663430010434,0.2998470980091952,0.27065635297913104,5.312510528019629,,,,0.3681912940228358,0.3378699629683979,5.680701822042465,,,,,j,1,0.891096200037282,j,1,3.4284019339829683,,,,0.3175544799887575,0.28836125001544133,5.998256302031223,0.30130077997455373,0.2717448119656183,6.2995570820057765,0.7179147930000909,0.6684036279912107,7.017471875005867,0.33425223699305207,0.3041541999555193,7.351724111998919,None,None,0.3010725650237873,0.25536708504660055,7.652796677022707,0.3500453209853731,0.3017435040092096,8.00284199800808,,,,,,,9,001,4,2,2018_Oct_04_1239,Dissertation,59.81677428223845,
,,0,,,Verdadero,Falso,f,B,single_left,"En la oficina había dos empleados, un periodista y un fotógrafo ",0,0,0,1,f,0,256,Había cuatro personas en la oficina.,,,,,,,,,,,,,,,,,,,,,,,,,0,0,0,0,0,64,64,55,,,,,,,,,,,,,,,,,,0.516835340007674,0.4891164810396731,0.516835340007674,0.3679789869929664,0.32333770795958117,0.8848143270006403,0.23451247002230957,0.1844866120372899,1.11932679702295,0.26687113498337567,0.23824349499773234,1.3861979320063256,0.3842451450182125,0.3552485500113107,1.770443077024538,0.317913819977548,0.2888049150351435,2.088356897002086,0.6171862299670465,0.5887612960068509,2.7055431269691326,0.3845979530015029,0.3562281019985676,3.0901410799706355,0.3672748630051501,0.3372294069849886,3.4574159429757856,0.3511093720444478,0.3220074799610302,3.8085253150202334,0.3020245119696483,0.27230829797917977,4.110549826989882,,,,,,,,,,,,,,,,,f,1,0.391391864977777,j,0,1.673066540970467,,,,,,,,,,,,,,,,None,None,,,,,,,,,,,,,9,001,4,2,2018_Oct_04_1239,Dissertation,59.81677428223845,
,,0,,,Verdadero,Falso,j,B,incongruent_right,Los empleados colocaron los avisos que su jefe les dejó en la entrada del edificio,0,1,1,0,j,0,120,Los empleados no sabían qué hacer con los avisos.,,,,,,,,,,,,,,,,,,,,,,,,,0,0,0,0,0,65,65,29,,,,,,,,,,,,,,,,,,0.45069043803960085,0.43661759595852345,0.45069043803960085,0.21709467697655782,0.18863262701779604,0.6677851150161587,0.2847001799964346,0.2559679599944502,0.9524852950125933,0.43443467997713014,0.40671961300540715,1.3869199749897234,0.384219870029483,0.353290784987621,1.7711398450192064,0.3505529700196348,0.32151605002582073,2.121692815038841,0.5835870929877274,0.5506269769975916,2.7052799080265686,0.4348029369721189,0.40485925500979647,3.1400828449986875,0.7350794590311125,0.6892943829880096,3.8751623040298,0.45095438096905127,0.4206792950280942,4.326116684998851,0.5533133100252599,0.5242727100267075,4.879429995024111,0.36608553101541474,0.3355614240281284,5.245515526039526,0.31878584396326914,0.2881058769999072,5.564301370002795,,,,0.384177069994621,0.35504167998442426,5.948478439997416,,,,,j,1,0.5707532420055941,j,1,2.4239672899711877,,,,0.4849035800434649,0.45646581501932815,6.433382020040881,,,,,,,,,,None,None,,,,,,,,,,,,,9,001,4,2,2018_Oct_04_1239,Dissertation,59.81677428223845,
,,0,,,Verdadero,Falso,f,B,incongruent_left,Los planos del arquitecto tienen un diseño muy creativo ,0,0,1,0,f,0,251,El arquitecto es muy bueno y creativo.,,,,,,,,,,,,,,,,,,,,,,,,,0,0,0,0,0,66,66,50,,,,,,,,,,,,,,,,,,0.4838381219888106,0.4732420400250703,0.4838381219888106,0.2843826750176959,0.2563383100205101,0.7682207970065065,0.20066064497223124,0.1728415500256233,0.9688814419787377,0.39896169502753764,0.36824294697726145,1.3678431370062754,0.26814972900319844,0.23674283002037555,1.6359928660094738,0.46864789101528004,0.43984599102986977,2.104640757024754,0.43485457997303456,0.40499648201512173,2.5394953369977884,0.6506140109850094,0.6209455310017802,3.1901093479827978,0.35212631401373073,0.32278418500209227,3.5422356619965285,,,,,,,,,,,,,,,,,,,,,,,j,0,0.3683781700092368,f,1,1.792758858005982,,,,,,,,,,,,,,,,None,None,,,,,,,,,,,,,9,001,4,2,2018_Oct_04_1239,Dissertation,59.81677428223845,
,,0,,,Verdadero,Falso,f,A,single_left,The girl,0,0,0,1,f,0,301,a,,,,,,,,,,,,,,,,,,,,,,,,,0,0,0,0,0,67,67,60,,,,,,,,,,,,,,,,,,,,,,,,,,,,,,,,,,,,,,,,,,,,,,,,,,,,,,,,,,,,,,,,,,,f,1,0.40504832001170143,None,0,,,,,,,,,,,,,,,,,None,None,,,,,,,,,,,,,9,001,4,2,2018_Oct_04_1239,Dissertation,59.81677428223845,
,,1,,,Verdadero,Falso,j,B,congruent_left,Los estudiantes metieron la tarea que la maestra les dio en la clase en sus bolsas antes de irse,1,1,0,0,f,0,40,La maestra se quedó con la tarea de los alumnos.,,,,,,,,,,,,,,,,,,,,,,,,,0,0,0,0,0,68,68,19,,,,,,,,,,,,,,,,,,0.5340448549832217,0.5168889840133488,0.5340448549832217,0.4502893509925343,0.4204007289954461,0.984334205975756,0.7511156190303154,0.720686542976182,1.7354498250060715,1.7559931629803032,1.7265719900024123,3.4914429879863746,0.3514750120230019,0.32210559298982844,3.8429180000093766,0.3993477369658649,0.3690692860400304,4.2422657369752415,0.38521910103736445,0.3562607489875518,4.627484838012606,0.3685099969734438,0.33917296200525016,4.99599483498605,0.33412141003645957,0.2891070600016974,5.330116245022509,0.4340263030026108,0.4051250600023195,5.76414254802512,0.21788809198187664,0.18932787998346612,5.982030640006997,0.450586048013065,0.4217630180064589,6.432616688020062,0.552110287011601,0.5231237349798903,6.984726975031663,,,,0.46739172999514267,0.42253653501393273,7.452118705026805,,,,,f,1,0.5082879000110552,j,1,4.332953831995837,,,,0.26701386796776205,0.23761581198778003,7.7191325729945675,0.28376248700078577,0.25495125498855487,8.002895059995353,0.3014145650085993,0.2710689179948531,8.304309625003953,0.36809613002697006,0.3356746949721128,8.672405755030923,None,None,0.26677204499719664,0.23783121700398624,8.93917780002812,,,,,,,,,,9,001,4,2,2018_Oct_04_1239,Dissertation,59.81677428223845,
,,1,,,Verdadero,Falso,f,B,congruent_right,Daniel metió el abrigo que su pareja dejó en la maleta en el clóset cuando regresaron,1,1,0,0,j,0,33,La pareja llevó un abrigo en su equipaje.,,,,,,,,,,,,,,,,,,,,,,,,,0,0,0,0,0,69,69,12,,,,,,,,,,,,,,,,,,0.5843187930295244,0.561617266968824,0.5843187930295244,0.2503656249609776,0.2217547629843466,0.834684417990502,0.3005489920033142,0.2719186049653217,1.1352334099938162,0.33413163002114743,0.30489651998504996,1.4693650400149636,0.2674900179845281,0.23871092294575647,1.7368550579994917,0.4677081420086324,0.4386331700370647,2.204563200008124,0.28392717498354614,0.2556189479655586,2.4884903749916703,0.484607013000641,0.4541927600512281,2.9730973879923113,0.2848514870274812,0.2514263979974203,3.2579488750197925,0.35086764802690595,0.32202530204085633,3.6088165230466984,0.26717847998952493,0.23880140099208802,3.8759950030362234,0.2665235080057755,0.23565565596800297,4.142518511041999,0.3166449120035395,0.28655670199077576,4.459163423045538,,,,0.2857753249700181,0.2561284700059332,4.7449387480155565,,,,,j,1,0.404690422990825,f,1,3.710928854998201,,,,0.4010821600095369,0.3723389770020731,5.146020908025093,0.3510772319859825,0.31838407198665664,5.497098140011076,,,,,,,None,None,,,,,,,,,,,,,9,001,4,2,2018_Oct_04_1239,Dissertation,59.81677428223845,
,,1,,,Verdadero,Falso,f,A,congruent_left,The girl,0,0,0,0,f,0,311,a,,,,,,,,,,,,,,,,,,,,,,,,,0,0,0,0,0,70,70,70,,,,,,,,,,,,,,,,,,,,,,,,,,,,,,,,,,,,,,,,,,,,,,,,,,,,,,,,,,,,,,,,,,,f,1,0.3887865199940279,None,0,,,,,,,,,,,,,,,,,None,None,,,,,,,,,,,,,9,001,4,2,2018_Oct_04_1239,Dissertation,59.81677428223845,
,,0,,,Verdadero,Falso,f,A,incongruent_left,The girl,0,0,1,0,f,0,313,a,,,,,,,,,,,,,,,,,,,,,,,,,0,0,0,0,0,71,71,72,,,,,,,,,,,,,,,,,,,,,,,,,,,,,,,,,,,,,,,,,,,,,,,,,,,,,,,,,,,,,,,,,,,f,1,0.5385998479905538,None,0,,,,,,,,,,,,,,,,,None,None,,,,,,,,,,,,,9,001,4,2,2018_Oct_04_1239,Dissertation,59.81677428223845,
,,0,,,Verdadero,Falso,f,B,single_right,Cuando los amigos tienen una fiesta todos toman vino o cerveza,0,0,0,1,j,0,242,Mis amigos no toman whisky en las fiestas.,,,,,,,,,,,,,,,,,,,,,,,,,0,0,0,0,0,72,72,41,,,,,,,,,,,,,,,,,,0.49988447199575603,0.48757638898678124,0.49988447199575603,0.29927908297395334,0.2683210700051859,0.7991635549697094,0.2843425819883123,0.2547241360298358,1.0835061369580217,0.3349706800072454,0.2887699030106887,1.418476816965267,0.41734587302198634,0.3698834230308421,1.8358226899872534,0.3843770750099793,0.3543859660276212,2.2201997649972327,0.5852021249593236,0.5559307169751264,2.8054018899565563,0.33476536005036905,0.30542877002153546,3.1401672500069253,0.3851712319883518,0.35607775300741196,3.525338481995277,0.3842267579748295,0.3560636070324108,3.9095652399701066,0.3005634699948132,0.27201726200291887,4.21012870996492,,,,,,,,,,,,,,,,,j,1,0.40190968196839094,f,1,2.1269990730215795,,,,,,,,,,,,,,,,None,None,,,,,,,,,,,,,9,001,4,2,2018_Oct_04_1239,Dissertation,59.81677428223845,
,,0,,,Verdadero,Falso,j,B,incongruent_right,Cuando Dora compró la comida se le quedó en el mercado,1,1,1,0,j,1,30,Dora salió del mercado con la comida.,,,,,,,,,,,,,,,,,,,,,,,,,0,0,0,0,0,73,73,9,,,,,,,,,,,,,,,,,,0.3664191529969685,0.3544122910243459,0.3664191529969685,0.18434785504359752,0.1553515269770287,0.550767008040566,0.36787381197791547,0.3389985749963671,0.9186408200184815,0.28278933302499354,0.2538681600126438,1.201430153043475,0.33454521995736286,0.300662059977185,1.5359753730008379,0.28436418203637004,0.25465616199653596,1.820339555037208,0.3851288380101323,0.35188814502907917,2.20546839304734,0.36720757000148296,0.3386338200070895,2.572675963048823,0.367955069988966,0.33872965502087027,2.940631033037789,0.35095311200711876,0.32250131701584905,3.291584145044908,0.4341426779865287,0.4060536249889992,3.7257268230314367,,,,,,,,,,,,,,,,,j,1,0.4507467669900507,f,0,2.127547032025177,,,,,,,,,,,,,,,,None,None,,,,,,,,,,,,,9,001,4,2,2018_Oct_04_1239,Dissertation,59.81677428223845,
,,1,,,Verdadero,Falso,f,B,congruent_left,Este año cuando gritaron el grito sonó hasta por las montañas,1,1,0,0,f,0,24,Se escuchó el grito desde lejos.,,,,,,,,,,,,,,,,,,,,,,,,,0,0,0,0,0,74,74,3,,,,,,,,,,,,,,,,,,0.5512644220143557,0.5381003549555317,0.5512644220143557,0.25031482498161495,0.22221007198095322,0.8015792469959706,0.21698945004027337,0.188465150014963,1.018568697036244,0.2839720629854128,0.2551358850323595,1.3025407600216568,0.40143795701442286,0.37288547004573047,1.7039787170360796,0.3171679499791935,0.28987298998981714,2.021146667015273,0.30094357300549746,0.2722278750152327,2.3220902400207706,0.5003829780034721,0.46993104997090995,2.8224732180242427,0.385076651989948,0.35539278702344745,3.2075498700141907,0.4180228899931535,0.3894439450232312,3.625572760007344,0.41872465499909595,0.3892285220208578,4.04429741500644,,,,,,,,,,,,,,,,,f,1,0.6385267010191455,j,0,5.4191215399769135,,,,,,,,,,,,,,,,None,None,,,,,,,,,,,,,9,001,4,2,2018_Oct_04_1239,Dissertation,59.81677428223845,
,,0,,,Verdadero,Falso,f,A,single_right,Me reí cuando mi amiga me contó la historia de su encuentro con su ex.,0,0,0,1,j,0,220,La historia de mi amiga me dio gracia.,,,,,,,,,,,,,,,,,,,,,,,,,1,0,1,0,0,0,0,49,,,,,,,,,,,,,,,,,,0.4673968450515531,0.4472637519938871,0.4673968450515531,0.26659442199161276,0.23749047197634354,0.7339912670431659,0.25153963995398954,0.2231016280129552,0.9855309069971554,0.40006533003179356,0.371301767998375,1.385596237028949,0.3519809179706499,0.318917304975912,1.7375771549995989,0.6184609869960696,0.5902614319929853,2.3560381419956684,0.35047518502688035,0.3219587769708596,2.7065133270225488,0.4009116149973124,0.37152617797255516,3.107424942019861,0.3843162329867482,0.35531761997845024,3.4917411750066094,0.2677413200144656,0.23861710005439818,3.759482495021075,0.48379318497609347,0.45447283500107005,4.2432756799971685,0.30215500202029943,0.27331060299184173,4.545430682017468,0.21684774302411824,0.18436711799586192,4.762278425041586,,,,0.4509834469645284,0.421555062988773,5.213261872006115,,,,,j,1,0.524778213002719,j,0,5.064533294993453,,,,0.31801308802096173,0.28466743300668895,5.531274960027076,,,,,,,,,,None,None,,,,,,,,space,16.7675617110217,,,,9,001,4,2,2018_Oct_04_1239,Dissertation,59.81677428223845,
,,0,,,Verdadero,Falso,j,A,incongruent_right,Los artistas van a donar tres estatuas a la ciudad,0,0,1,0,j,0,203,La ciudad va a comprar las estatuas.,,,,,,,,,,,,,,,,,,,,,,,,,1,0,1,0,0,1,1,32,,,,,,,,,,,,,,,,,,0.5176445150282234,0.506977467040997,0.5176445150282234,0.3168598400079645,0.2881744129699655,0.8345043550361879,0.33426084800157696,0.3013651199871674,1.1687652030377649,0.30092449695803225,0.27200900501338765,1.4696896999957971,0.3510910400073044,0.3214559049811214,1.8207807400031015,0.3512963730026968,0.32219268300104886,2.1720771130057983,0.4847428100183606,0.4518611649982631,2.656819923024159,0.43438206700375304,0.40588904498144984,3.091201990027912,0.3672972529893741,0.3388664100202732,3.458499243017286,0.25110836001113057,0.22254153800895438,3.7096076030284166,,,,,,,,,,,,,,,,,,,,j,1,0.5542349579627626,j,1,2.155448859964963,,,,,,,,,,,,,,,,None,None,,,,,,,,,,,,,9,001,4,2,2018_Oct_04_1239,Dissertation,59.81677428223845,
,,0,,,Verdadero,Falso,f,A,single_right,Mi hermana guardó en su celular el número del chico guapo,0,0,0,1,j,0,208,A mi hermana le gustaría salir con el chico.,,,,,,,,,,,,,,,,,,,,,,,,,1,0,1,0,0,2,2,37,,,,,,,,,,,,,,,,,,0.41689838998718187,0.40470404300140217,0.41689838998718187,0.4349121699924581,0.40549770201323554,0.85181055997964,0.38410376000683755,0.35244083002908155,1.2359143199864775,0.31713270500767976,0.28436811798019335,1.5530470249941573,0.38459292298648506,0.3565178969874978,1.9376399479806423,0.26763030502479523,0.23883381200721487,2.2052702530054376,0.8852483719820157,0.8563550749677233,3.0905186249874532,0.334153903007973,0.30536324298009276,3.424672527995426,0.48525022697867826,0.45593512698542327,3.9099227549741045,0.23371143301483244,0.20577871199930087,4.143634187988937,0.4344145999639295,0.40540507703553885,4.578048787952866,,,,,,,,,,,,,,,,,j,1,0.34956549399066716,f,1,2.076271475001704,,,,,,,,,,,,,,,,None,None,,,,,,,,,,,,,9,001,4,2,2018_Oct_04_1239,Dissertation,59.81677428223845,
,,1,,,Verdadero,Falso,j,A,congruent_left,Antes de que cantaran esa canción no era muy conocida ,1,1,0,0,f,0,6,Todos ya se sabían la canción antes de la fiesta.,,,,,,,,,,,,,,,,,,,,,,,,,1,0,1,0,0,3,3,5,,,,,,,,,,,,,,,,,,0.4671873800107278,0.45657446602126583,0.4671873800107278,0.2511270249960944,0.21857355500105768,0.7183144050068222,0.26556957699358463,0.23572555801365525,0.9838839820004068,0.23504429002059624,0.2049058449920267,1.218928272021003,0.33392137300688773,0.3048081200104207,1.5528496450278908,0.43438370001967996,0.40442926302785054,1.9872333450475708,0.4521530219935812,0.4188874579849653,2.439386367041152,0.4509783649700694,0.4221889269538224,2.8903647320112213,0.3516961600398645,0.3281242750235833,3.242060892051086,0.38406670797849074,0.33870853699045256,3.6261276000295766,,,,,,,,,,,,,,,,,,,,f,1,0.38861490704584867,j,1,2.040119195007719,,,,,,,,,,,,,,,,None,None,,,,,,,,,,,,,9,001,4,2,2018_Oct_04_1239,Dissertation,59.81677428223845,
,,0,,,Verdadero,Falso,j,A,incongruent_left,Mis amigas se reunieron en la escuela para ir a jugar fútbol,0,0,1,0,f,0,209,Jugaron béisbol mis amigas.  ,,,,,,,,,,,,,,,,,,,,,,,,,1,0,1,0,0,4,4,38,,,,,,,,,,,,,,,,,,0.45058657304616645,0.43966704298509285,0.45058657304616645,0.23403370199957862,0.2001446479698643,0.6846202750457451,0.4686766729573719,0.44126117101404816,1.153296948003117,0.31714809499680996,0.28896834299666807,1.470445042999927,0.41738276003161445,0.3889506019768305,1.8878278030315414,0.41770327201811597,0.3882935000001453,2.3055310750496574,0.3179865929996595,0.28845067700603977,2.623517668049317,0.7017204099684022,0.6732365950010717,3.325238078017719,0.6843211019877344,0.655406475008931,4.0095591800054535,0.2680087780463509,0.23849712498486042,4.2775679580518045,0.4677368219709024,0.4391333750099875,4.745304780022707,0.25110938801662996,0.2242177079897374,4.996414168039337,,,,,,,,,,,,,,f,1,0.8538177500013262,j,1,2.661428536986932,,,,,,,,,,,,,,,,None,None,,,,,,,,,,,,,9,001,4,2,2018_Oct_04_1239,Dissertation,59.81677428223845,
,,0,,,Verdadero,Falso,j,A,single_left,La participante brilló cuando ganó el maratón,0,0,0,1,f,0,218,La participante se quedó triste después del maratón.,,,,,,,,,,,,,,,,,,,,,,,,,1,0,1,0,0,5,5,47,,,,,,,,,,,,,,,,,,0.48396836000029,0.47370905202114955,0.48396836000029,0.3008773069595918,0.27150447497842833,0.7848456669598818,0.30069883802207187,0.2721275779767893,1.0855445049819537,0.3844250969705172,0.351754589995835,1.4699696019524708,0.48344645102042705,0.453904883004725,1.9534160529728979,0.33503728901268914,0.3073072400293313,2.288453341985587,0.41766618500696495,0.3900760160177015,2.706119526992552,,,,,,,,,,,,,,,,,,,,,,,,,,,,,f,1,0.619779467000626,j,1,1.8891419300343841,,,,,,,,,,,,,,,,None,None,,,,,,,,,,,,,9,001,4,2,2018_Oct_04_1239,Dissertation,59.81677428223845,
,,0,,,Verdadero,Falso,f,A,single_right,The boy,0,0,0,1,j,0,302,a,,,,,,,,,,,,,,,,,,,,,,,,,1,0,1,0,0,6,6,61,,,,,,,,,,,,,,,,,,,,,,,,,,,,,,,,,,,,,,,,,,,,,,,,,,,,,,,,,,,,,,,,,,,j,1,0.35355336498469114,None,0,,,,,,,,,,,,,,,,,None,None,,,,,,,,,,,,,9,001,4,2,2018_Oct_04_1239,Dissertation,59.81677428223845,
