practiceimage,PracticeimageCorrAns,congruent,practiceSentence,practiceSentenceCompQ,compRespL,compRespR,compRespCorr,block,image,sentence,ambiguous,critical,Incongruent,Single,imageCorrAns,incongruentambiguous,criticalSentenceCode,compQ,RepeatFlankerIfNeeded.thisRepN,RepeatFlankerIfNeeded.thisTrialN,RepeatFlankerIfNeeded.thisN,RepeatFlankerIfNeeded.thisIndex,practiceFlankerLoop.thisRepN,practiceFlankerLoop.thisTrialN,practiceFlankerLoop.thisN,practiceFlankerLoop.thisIndex,RepeatPracticeSentencesIfNeeded.thisRepN,RepeatPracticeSentencesIfNeeded.thisTrialN,RepeatPracticeSentencesIfNeeded.thisN,RepeatPracticeSentencesIfNeeded.thisIndex,practiceSentenceLoop.thisRepN,practiceSentenceLoop.thisTrialN,practiceSentenceLoop.thisN,practiceSentenceLoop.thisIndex,MixedPractice.thisRepN,MixedPractice.thisTrialN,MixedPractice.thisN,MixedPractice.thisIndex,MixedPracticeTrial.thisRepN,MixedPracticeTrial.thisTrialN,MixedPracticeTrial.thisN,MixedPracticeTrial.thisIndex,blocks.thisRepN,blocks.thisTrialN,blocks.thisN,blocks.thisIndex,trials.thisRepN,trials.thisTrialN,trials.thisN,trials.thisIndex,keyResponseIntroText.keys,keyResponseIntroText.rt,keyResponseIntro2Text.keys,keyResponseIntro2Text.rt,FlankerInstructions_keyresponse.keys,FlankerInstructions_keyresponse.rt,FlankerInstructions2_keyresponse.keys,FlankerInstructions2_keyresponse.rt,PracticeFlankerResponse.keys,PracticeFlankerResponse.corr,PracticeFlankerResponse.rt,SPRInstructions_keyresponse.keys,SPRInstructions_keyresponse.rt,SPRinstructions2_keyresponse.keys,SPRinstructions2_keyresponse.rt,IRI_0,IRI_FL_0,space_0,IRI_1,IRI_FL_1,space_1,key_resp_practiceCompQ.keys,key_resp_practiceCompQ.corr,key_resp_practiceCompQ.rt,combinedInstructions_keyresponse.keys,combinedInstructions_keyresponse.rt,keyResponseInstructionsMixed.keys,keyResponseInstructionsMixed.rt,flankerkeyresponse.keys,flankerkeyresponse.corr,flankerkeyresponse.rt,IRI_2,IRI_FL_2,space_2,IRI_3,IRI_FL_3,space_3,IRI_4,IRI_FL_4,space_4,IRI_5,IRI_FL_5,space_5,CompQkeyresponse.keys,CompQkeyresponse.corr,CompQkeyresponse.rt,key_resp_3.keys,IRI_6,IRI_FL_6,space_6,IRI_7,IRI_FL_7,space_7,IRI_8,IRI_FL_8,space_8,IRI_9,IRI_FL_9,space_9,IRI_10,IRI_FL_10,space_10,IRI_11,IRI_FL_11,space_11,IRI_12,IRI_FL_12,space_12,keyResponsePreStart.keys,keyResponsePreStart.rt,key_resp_2.keys,key_resp_4.keys,IRI_13,IRI_FL_13,space_13,IRI_14,IRI_FL_14,space_14,IRI_15,IRI_FL_15,space_15,IRI_16,IRI_FL_16,space_16,IRI_17,IRI_FL_17,space_17,IRI_18,IRI_FL_18,space_18,IRI_19,IRI_FL_19,space_19,IRI_20,IRI_FL_20,space_20,key_resp_4.rt,rest_keyresponse.keys,rest_keyresponse.rt,session,participant,level,frameRate,expName,date,group,
,,,,,,,,,,,,,,,,,,,,,,,,,,,,,,,,,,,,,,,,,,,,,,,,,,,space,47.5015499592,,,,,,,,,,,,,,,,,,,,,,,,,,,,,,,,,,,,,,,,,,,,,,,,,,,,,,,,,,,,,,,,,,,,,,,,,,,,,,,,,,,,,,,,,,,,,,,,,,1,1,4,59.31824320979797,Dissertation,2018_Jul_18_1614,1,
,,,,,,,,,,,,,,,,,,,,,,,,,,,,,,,,,,,,,,,,,,,,,,,,,,,,,space,34.925011158,,,,,,,,,,,,,,,,,,,,,,,,,,,,,,,,,,,,,,,,,,,,,,,,,,,,,,,,,,,,,,,,,,,,,,,,,,,,,,,,,,,,,,,,,,,,,,,,1,1,4,59.31824320979797,Dissertation,2018_Jul_18_1614,1,
,,,,,,,,,,,,,,,,,,,,,,,,,,,,,,,,,,,,,,,,,,,,,,,,,,,,,,,space,17.3148128986,,,,,,,,,,,,,,,,,,,,,,,,,,,,,,,,,,,,,,,,,,,,,,,,,,,,,,,,,,,,,,,,,,,,,,,,,,,,,,,,,,,,,,,,,,,,,,1,1,4,59.31824320979797,Dissertation,2018_Jul_18_1614,1,
incongruent_right,j,0,Yellow practice,Yellow,Yes,No,f,practice,,,,,,,,,,,0,0,0,0,0,0,0,3,,,,,,,,,,,,,,,,,,,,,,,,,,,,,,,space,10.2999410629,None,0,,,,,,,,,,,,,,,,,,,,,,,,,,,,,,,,,,,,,,,,,,,,,,,,,,,,,,,,,,,,,,,,,,,,,,,,,,,,,,,,,,,,,,,,,,1,1,4,59.31824320979797,Dissertation,2018_Jul_18_1614,1,
incongruent_left,f,0,Green practice,Green,Yes,No,f,practice,,,,,,,,,,,0,0,0,0,0,1,1,2,,,,,,,,,,,,,,,,,,,,,,,,,,,,,,,,,None,0,,,,,,,,,,,,,,,,,,,,,,,,,,,,,,,,,,,,,,,,,,,,,,,,,,,,,,,,,,,,,,,,,,,,,,,,,,,,,,,,,,,,,,,,,,1,1,4,59.31824320979797,Dissertation,2018_Jul_18_1614,1,
congruent_left,f,1,Red practice,Red,Yes,No,f,practice,,,,,,,,,,,0,0,0,0,0,2,2,0,,,,,,,,,,,,,,,,,,,,,,,,,,,,,,,,,f,1,1.42115497589,,,,,,,,,,,,,,,,,,,,,,,,,,,,,,,,,,,,,,,,,,,,,,,,,,,,,,,,,,,,,,,,,,,,,,,,,,,,,,,,,,,,,,,,,1,1,4,59.31824320979797,Dissertation,2018_Jul_18_1614,1,
single_left,f,0,Blue,Blue,Yes,No,f,practice,,,,,,,,,,,0,0,0,0,0,3,3,4,,,,,,,,,,,,,,,,,,,,,,,,,,,,,,,,,f,1,0.584646940231,,,,,,,,,,,,,,,,,,,,,,,,,,,,,,,,,,,,,,,,,,,,,,,,,,,,,,,,,,,,,,,,,,,,,,,,,,,,,,,,,,,,,,,,,1,1,4,59.31824320979797,Dissertation,2018_Jul_18_1614,1,
congruent_right,j,1,Orange practice,Orange,No,Yes,j,practice,,,,,,,,,,,0,0,0,0,0,4,4,1,,,,,,,,,,,,,,,,,,,,,,,,,,,,,,,,,j,1,0.601021051407,,,,,,,,,,,,,,,,,,,,,,,,,,,,,,,,,,,,,,,,,,,,,,,,,,,,,,,,,,,,,,,,,,,,,,,,,,,,,,,,,,,,,,,,,1,1,4,59.31824320979797,Dissertation,2018_Jul_18_1614,1,
single_right,j,0,White practice,wite,yes,No,f,practice,,,,,,,,,,,0,0,0,0,0,5,5,5,,,,,,,,,,,,,,,,,,,,,,,,,,,,,,,,,j,1,0.535135030746,,,,,,,,,,,,,,,,,,,,,,,,,,,,,,,,,,,,,,,,,,,,,,,,,,,,,,,,,,,,,,,,,,,,,,,,,,,,,,,,,,,,,,,,,1,1,4,59.31824320979797,Dissertation,2018_Jul_18_1614,1,
incongruent_left,f,0,Green practice,Green,Yes,No,f,practice,,,,,,,,,,,0,0,0,0,1,0,6,2,,,,,,,,,,,,,,,,,,,,,,,,,,,,,,,,,f,1,0.537958145142,,,,,,,,,,,,,,,,,,,,,,,,,,,,,,,,,,,,,,,,,,,,,,,,,,,,,,,,,,,,,,,,,,,,,,,,,,,,,,,,,,,,,,,,,1,1,4,59.31824320979797,Dissertation,2018_Jul_18_1614,1,
incongruent_right,j,0,Yellow practice,Yellow,Yes,No,f,practice,,,,,,,,,,,0,0,0,0,1,1,7,3,,,,,,,,,,,,,,,,,,,,,,,,,,,,,,,,,j,1,0.637336969376,,,,,,,,,,,,,,,,,,,,,,,,,,,,,,,,,,,,,,,,,,,,,,,,,,,,,,,,,,,,,,,,,,,,,,,,,,,,,,,,,,,,,,,,,1,1,4,59.31824320979797,Dissertation,2018_Jul_18_1614,1,
congruent_right,j,1,Orange practice,Orange,No,Yes,j,practice,,,,,,,,,,,0,0,0,0,1,2,8,1,,,,,,,,,,,,,,,,,,,,,,,,,,,,,,,,,j,1,0.516825914383,,,,,,,,,,,,,,,,,,,,,,,,,,,,,,,,,,,,,,,,,,,,,,,,,,,,,,,,,,,,,,,,,,,,,,,,,,,,,,,,,,,,,,,,,1,1,4,59.31824320979797,Dissertation,2018_Jul_18_1614,1,
single_left,f,0,Blue,Blue,Yes,No,f,practice,,,,,,,,,,,0,0,0,0,1,3,9,4,,,,,,,,,,,,,,,,,,,,,,,,,,,,,,,,,f,1,0.501852989197,,,,,,,,,,,,,,,,,,,,,,,,,,,,,,,,,,,,,,,,,,,,,,,,,,,,,,,,,,,,,,,,,,,,,,,,,,,,,,,,,,,,,,,,,1,1,4,59.31824320979797,Dissertation,2018_Jul_18_1614,1,
single_right,j,0,White practice,wite,yes,No,f,practice,,,,,,,,,,,0,0,0,0,1,4,10,5,,,,,,,,,,,,,,,,,,,,,,,,,,,,,,,,,j,1,0.552738189697,,,,,,,,,,,,,,,,,,,,,,,,,,,,,,,,,,,,,,,,,,,,,,,,,,,,,,,,,,,,,,,,,,,,,,,,,,,,,,,,,,,,,,,,,1,1,4,59.31824320979797,Dissertation,2018_Jul_18_1614,1,
congruent_left,f,1,Red practice,Red,Yes,No,f,practice,,,,,,,,,,,0,0,0,0,1,5,11,0,,,,,,,,,,,,,,,,,,,,,,,,,,,,,,,,,f,1,0.653753042221,,,,,,,,,,,,,,,,,,,,,,,,,,,,,,,,,,,,,,,,,,,,,,,,,,,,,,,,,,,,,,,,,,,,,,,,,,,,,,,,,,,,,,,,,1,1,4,59.31824320979797,Dissertation,2018_Jul_18_1614,1,
single_left,f,0,Blue,Blue,Yes,No,f,practice,,,,,,,,,,,0,0,0,0,2,0,12,4,,,,,,,,,,,,,,,,,,,,,,,,,,,,,,,,,f,1,0.536766052246,,,,,,,,,,,,,,,,,,,,,,,,,,,,,,,,,,,,,,,,,,,,,,,,,,,,,,,,,,,,,,,,,,,,,,,,,,,,,,,,,,,,,,,,,1,1,4,59.31824320979797,Dissertation,2018_Jul_18_1614,1,
incongruent_right,j,0,Yellow practice,Yellow,Yes,No,f,practice,,,,,,,,,,,0,0,0,0,2,1,13,3,,,,,,,,,,,,,,,,,,,,,,,,,,,,,,,,,j,1,0.618505954742,,,,,,,,,,,,,,,,,,,,,,,,,,,,,,,,,,,,,,,,,,,,,,,,,,,,,,,,,,,,,,,,,,,,,,,,,,,,,,,,,,,,,,,,,1,1,4,59.31824320979797,Dissertation,2018_Jul_18_1614,1,
incongruent_left,f,0,Green practice,Green,Yes,No,f,practice,,,,,,,,,,,0,0,0,0,2,2,14,2,,,,,,,,,,,,,,,,,,,,,,,,,,,,,,,,,f,1,0.572183132172,,,,,,,,,,,,,,,,,,,,,,,,,,,,,,,,,,,,,,,,,,,,,,,,,,,,,,,,,,,,,,,,,,,,,,,,,,,,,,,,,,,,,,,,,1,1,4,59.31824320979797,Dissertation,2018_Jul_18_1614,1,
single_right,j,0,White practice,wite,yes,No,f,practice,,,,,,,,,,,0,0,0,0,2,3,15,5,,,,,,,,,,,,,,,,,,,,,,,,,,,,,,,,,j,1,0.439476966858,,,,,,,,,,,,,,,,,,,,,,,,,,,,,,,,,,,,,,,,,,,,,,,,,,,,,,,,,,,,,,,,,,,,,,,,,,,,,,,,,,,,,,,,,1,1,4,59.31824320979797,Dissertation,2018_Jul_18_1614,1,
congruent_right,j,1,Orange practice,Orange,No,Yes,j,practice,,,,,,,,,,,0,0,0,0,2,4,16,1,,,,,,,,,,,,,,,,,,,,,,,,,,,,,,,,,j,1,0.586147069931,,,,,,,,,,,,,,,,,,,,,,,,,,,,,,,,,,,,,,,,,,,,,,,,,,,,,,,,,,,,,,,,,,,,,,,,,,,,,,,,,,,,,,,,,1,1,4,59.31824320979797,Dissertation,2018_Jul_18_1614,1,
congruent_left,f,1,Red practice,Red,Yes,No,f,practice,,,,,,,,,,,0,0,0,0,2,5,17,0,,,,,,,,,,,,,,,,,,,,,,,,,,,,,,,,,f,1,0.439249038696,,,,,,,,,,,,,,,,,,,,,,,,,,,,,,,,,,,,,,,,,,,,,,,,,,,,,,,,,,,,,,,,,,,,,,,,,,,,,,,,,,,,,,,,,1,1,4,59.31824320979797,Dissertation,2018_Jul_18_1614,1,
incongruent_right,j,0,Yellow practice,Yellow,Yes,No,f,practice,,,,,,,,,,,0,0,0,0,3,0,18,3,,,,,,,,,,,,,,,,,,,,,,,,,,,,,,,,,j,1,0.431692123413,,,,,,,,,,,,,,,,,,,,,,,,,,,,,,,,,,,,,,,,,,,,,,,,,,,,,,,,,,,,,,,,,,,,,,,,,,,,,,,,,,,,,,,,,1,1,4,59.31824320979797,Dissertation,2018_Jul_18_1614,1,
single_right,j,0,White practice,wite,yes,No,f,practice,,,,,,,,,,,0,0,0,0,3,1,19,5,,,,,,,,,,,,,,,,,,,,,,,,,,,,,,,,,j,1,0.504415035248,,,,,,,,,,,,,,,,,,,,,,,,,,,,,,,,,,,,,,,,,,,,,,,,,,,,,,,,,,,,,,,,,,,,,,,,,,,,,,,,,,,,,,,,,1,1,4,59.31824320979797,Dissertation,2018_Jul_18_1614,1,
congruent_left,f,1,Red practice,Red,Yes,No,f,practice,,,,,,,,,,,0,0,0,0,3,2,20,0,,,,,,,,,,,,,,,,,,,,,,,,,,,,,,,,,f,1,0.486882925034,,,,,,,,,,,,,,,,,,,,,,,,,,,,,,,,,,,,,,,,,,,,,,,,,,,,,,,,,,,,,,,,,,,,,,,,,,,,,,,,,,,,,,,,,1,1,4,59.31824320979797,Dissertation,2018_Jul_18_1614,1,
incongruent_left,f,0,Green practice,Green,Yes,No,f,practice,,,,,,,,,,,0,0,0,0,3,3,21,2,,,,,,,,,,,,,,,,,,,,,,,,,,,,,,,,,f,1,0.620697021484,,,,,,,,,,,,,,,,,,,,,,,,,,,,,,,,,,,,,,,,,,,,,,,,,,,,,,,,,,,,,,,,,,,,,,,,,,,,,,,,,,,,,,,,,1,1,4,59.31824320979797,Dissertation,2018_Jul_18_1614,1,
congruent_right,j,1,Orange practice,Orange,No,Yes,j,practice,,,,,,,,,,,0,0,0,0,3,4,22,1,,,,,,,,,,,,,,,,,,,,,,,,,,,,,,,,,j,1,0.449774026871,,,,,,,,,,,,,,,,,,,,,,,,,,,,,,,,,,,,,,,,,,,,,,,,,,,,,,,,,,,,,,,,,,,,,,,,,,,,,,,,,,,,,,,,,1,1,4,59.31824320979797,Dissertation,2018_Jul_18_1614,1,
single_left,f,0,Blue,Blue,Yes,No,f,practice,,,,,,,,,,,0,0,0,0,3,5,23,4,,,,,,,,,,,,,,,,,,,,,,,,,,,,,,,,,f,1,0.469587802887,,,,,,,,,,,,,,,,,,,,,,,,,,,,,,,,,,,,,,,,,,,,,,,,,,,,,,,,,,,,,,,,,,,,,,,,,,,,,,,,,,,,,,,,,1,1,4,59.31824320979797,Dissertation,2018_Jul_18_1614,1,
,,,,,,,,,,,,,,,,,,,0,0,0,0,,,,,,,,,,,,,,,,,,,,,,,,,,,,,,,,,,,,,,,,,,,,,,,,,,,,,,,,,,,,,,,,,,,,,,,,,,,,,,,,,,,,,,,,,,,,,,,,,,,,,,,,,,,,,,,,,,,,,,,,,,,,,,,,1,1,4,59.31824320979797,Dissertation,2018_Jul_18_1614,1,
,,,,,,,,,,,,,,,,,,,,,,,,,,,,,,,,,,,,,,,,,,,,,,,,,,,,,,,,,,,,,,space,62.5496370792,,,,,,,,,,,,,,,,,,,,,,,,,,,,,,,,,,,,,,,,,,,,,,,,,,,,,,,,,,,,,,,,,,,,,,,,,,,,,,,,,,,,,,,1,1,4,59.31824320979797,Dissertation,2018_Jul_18_1614,1,
congruent_left,f,1,Red practice,Red,Yes,No,f,practice,,,,,,,,,,,,,,,,,,,0,0,0,0,0,0,0,0,,,,,,,,,,,,,,,,,,,,,,,,,,,,,,space,2.23998618126,3.71257781982,3.54559898376,3.71257781982,1.73802614212,1.7089009285,5.45060396194,f,1,2.0944480896,,,,,,,,,,,,,,,,,,,,,,,,,,,,,,,,,,,,,,,,,,,,,,,,,,,,,,,,,,,,,,,,,,,,,,,,,,,,1,1,4,59.31824320979797,Dissertation,2018_Jul_18_1614,1,
incongruent_left,f,0,Green practice,Green,Yes,No,f,practice,,,,,,,,,,,,,,,,,,,0,0,0,0,0,1,1,2,,,,,,,,,,,,,,,,,,,,,,,,,,,,,,,,2.21139597893,2.1994509697,2.21139597893,0.670071125031,0.638870000839,2.88146710396,f,1,0.852902173996,,,,,,,,,,,,,,,,,,,,,,,,,,,,,,,,,,,,,,,,,,,,,,,,,,,,,,,,,,,,,,,,,,,,,,,,,,,,1,1,4,59.31824320979797,Dissertation,2018_Jul_18_1614,1,
single_right,j,0,White practice,wite,yes,No,f,practice,,,,,,,,,,,,,,,,,,,0,0,0,0,0,2,2,5,,,,,,,,,,,,,,,,,,,,,,,,,,,,,,,,0.715669870377,0.706404924393,0.715669870377,0.484789133072,0.434719085693,1.20045900345,f,1,4.26610708237,,,,,,,,,,,,,,,,,,,,,,,,,,,,,,,,,,,,,,,,,,,,,,,,,,,,,,,,,,,,,,,,,,,,,,,,,,,,1,1,4,59.31824320979797,Dissertation,2018_Jul_18_1614,1,
incongruent_right,j,0,Yellow practice,Yellow,Yes,No,f,practice,,,,,,,,,,,,,,,,,,,0,0,0,0,0,3,3,3,,,,,,,,,,,,,,,,,,,,,,,,,,,,,,,,3.18649411201,3.17571806908,3.18649411201,0.500977993011,0.472560882568,3.68747210503,f,1,1.5226662159,,,,,,,,,,,,,,,,,,,,,,,,,,,,,,,,,,,,,,,,,,,,,,,,,,,,,,,,,,,,,,,,,,,,,,,,,,,,1,1,4,59.31824320979797,Dissertation,2018_Jul_18_1614,1,
single_left,f,0,Blue,Blue,Yes,No,f,practice,,,,,,,,,,,,,,,,,,,0,0,0,0,0,4,4,4,,,,,,,,,,,,,,,,,,,,,,,,,,,,,,,,1.53383088112,1.53071904182,1.53383088112,,,,f,1,0.969727993011,,,,,,,,,,,,,,,,,,,,,,,,,,,,,,,,,,,,,,,,,,,,,,,,,,,,,,,,,,,,,,,,,,,,,,,,,,,,1,1,4,59.31824320979797,Dissertation,2018_Jul_18_1614,1,
congruent_right,j,1,Orange practice,Orange,No,Yes,j,practice,,,,,,,,,,,,,,,,,,,0,0,0,0,0,5,5,1,,,,,,,,,,,,,,,,,,,,,,,,,,,,,,,,1.41910004616,1.41315197945,1.41910004616,0.315924882889,0.271242856979,1.73502492905,j,1,2.45754504204,,,,,,,,,,,,,,,,,,,,,,,,,,,,,,,,,,,,,,,,,,,,,,,,,,,,,,,,,,,,,,,,,,,,,,,,,,,,1,1,4,59.31824320979797,Dissertation,2018_Jul_18_1614,1,
,,,,,,,,,,,,,,,,,,,,,,,,,,,0,0,0,0,,,,,,,,,,,,,,,,,,,,,,,,,,,,,,,,,,,,,,,,,,,,,,,,,,,,,,,,,,,,,,,,,,,,,,,,,,,,,,,,,,,,,,,,,,,,,,,,,,,,,,,,,,,,,,,,,,,,,,,,1,1,4,59.31824320979797,Dissertation,2018_Jul_18_1614,1,
,,,,,,,,,,,,,,,,,,,,,,,,,,,,,,,,,,,,,,,,,,,,,,,,,,,,,,,,,,,,,,,,,,,,,,,,,,,space,43.5727858543,,,,,,,,,,,,,,,,,,,,,,,,,,,,,,,,,,,,,,,,,,,,,,,,,,,,,,,,,,,,,,,,,,,,,,,,,,1,1,4,59.31824320979797,Dissertation,2018_Jul_18_1614,1,
,,None,,,Verdadero,Falso,j,None,incongruent_left,Mi estación preferida es el verano,None,None,None,None,f,None,None,Me gusta el invierno más que las otras estaciones.,,,,,,,,,,,,,,,,,0,0,0,0,0,0,0,1,,,,,,,,,,,,,,,,,,,,,,,,1.03210186958,0.996338129044,1.03210186958,0.449340105057,0.402706861496,1.48144197464,,,,,,space,7.79015493393,f,1,1.25728917122,0.569319963455,0.521232843399,2.0507619381,0.575623035431,0.530747890472,2.62638497353,0.40988111496,0.355195045471,3.03626608849,0.467667818069,0.419260025024,3.50393390656,j,1,3.24267601967,None,,,,,,,,,,,,,,,,,,,,,,,,,,,,,,,,,,,,,,,,,,,,,,,,,,,,,1,1,4,59.31824320979797,Dissertation,2018_Jul_18_1614,1,
,,None,,,Verdadero,Falso,f,None,congruent_right,Me gusta vivir en la ciudad de Washington porque tiene mucha historia,None,None,None,None,j,None,None,Estoy contento viviendo en D.C.,,,,,,,,,,,,,,,,,0,0,0,0,0,1,1,3,,,,,,,,,,,,,,,,,,,,,,,,0.702780008316,0.660606145859,0.702780008316,0.434191226959,0.372918128967,1.13697123528,,,,,,,,j,1,0.920974969864,0.401187896729,0.334625959396,1.538159132,0.551209926605,0.50615811348,2.08936905861,0.485363006592,0.421671152115,2.5747320652,0.384505987167,0.321562051773,2.95923805237,f,1,2.45698690414,None,0.50109910965,0.421267032623,3.46033716202,0.417536020279,0.356877088547,3.8778731823,0.61741399765,0.553276777267,4.49528717995,0.451972007751,0.388119935989,4.9472591877,0.468528032303,0.406469106674,5.41578722,0.467189788818,0.406090021133,5.88297700882,,,,,,,,,,,,,,,,,,,,,,,,,,,,,,,,,,,1,1,4,59.31824320979797,Dissertation,2018_Jul_18_1614,1,
,,None,,,Verdadero,Falso,f,None,incongruent_right,Estudio mucho durante la semana para poder divertirme durante el fin de semana,None,None,None,None,j,None,None,No voy a la biblioteca mucho los fines de semana.,,,,,,,,,,,,,,,,,0,0,0,0,0,2,2,2,,,,,,,,,,,,,,,,,,,,,,,,0.619021892548,0.571557044983,0.619021892548,0.399402141571,0.335366010666,1.01842403412,,,,,,,,j,1,1.0227560997,0.352277040482,0.290059089661,1.3707010746,0.685055971146,0.62247800827,2.05575704575,0.38486790657,0.32047700882,2.44062495232,0.518294095993,0.457052946091,2.95891904831,f,1,3.05967211723,None,0.484210968018,0.407025098801,3.44313001633,0.51846909523,0.456746816635,3.96159911156,0.651642799377,0.573513031006,4.61324191093,0.833883047104,0.751929998398,5.44712495804,0.58411192894,0.519724845886,6.03123688698,0.537131071091,0.470774173737,6.56836795807,0.449784994125,0.369794130325,7.01815295219,,,,,,,,,,,,,,,,,,,,,,,,,,,,,,,,1,1,4,59.31824320979797,Dissertation,2018_Jul_18_1614,1,
,,None,,,Verdadero,Falso,j,None,congruent_left,El chico corrió en el parque ayer,None,None,None,None,f,None,None,El chico no hizo nada ayer.,,,,,,,,,,,,,,,,,0,0,0,0,0,3,3,0,,,,,,,,,,,,,,,,,,,,,,,,0.901207923889,0.846173048019,0.901207923889,0.367969036102,0.320634126663,1.26917695999,,,,,,,,f,1,0.790524959564,0.467715024948,0.422373056412,1.73689198494,0.434731006622,0.385443210602,2.17162299156,0.451259851456,0.420483112335,2.62288284302,0.501071214676,0.45432806015,3.12395405769,j,1,2.25508379936,None,0.519007921219,0.476366996765,3.64296197891,,,,,,,,,,,,,,,,,,,,,,,,,,,,,,,,,,,,,,,,,,,,,,,,,,1,1,4,59.31824320979797,Dissertation,2018_Jul_18_1614,1,
,,None,,,Verdadero,Falso,j,None,single_left,A Iván le gusta cocinar y toma clases de gastronomía,None,None,None,None,f,None,None,Iván cocina mucho.,,,,,,,,,,,,,,,,,0,0,0,0,0,4,4,5,,,,,,,,,,,,,,,,,,,,,,,,0.935292959213,0.898907184601,0.935292959213,0.366070985794,0.302243947983,1.30136394501,,,,,,,,f,1,0.602430105209,0.653251886368,0.606108903885,1.95461583138,0.452141046524,0.409215927124,2.4067568779,0.33343911171,0.27202796936,2.74019598961,0.584277868271,0.520205020905,3.32447385788,f,0,2.6554620266,None,0.451729059219,0.406008005142,3.7762029171,0.501041889191,0.454702138901,4.27724480629,0.63552904129,0.574471950531,4.91277384758,0.434438943863,0.368908882141,5.34721279144,,,,,,,,,,,,,,,,,,,,,,,,,,,,,,,,,,,,,,,,,1,1,4,59.31824320979797,Dissertation,2018_Jul_18_1614,1,
,,None,,,Verdadero,Falso,f,None,single_right,La madre de Julieta vive en Filadelfia así que Julieta la visita mucho,None,None,None,None,j,None,None,Julieta y su madre se ven mucho.,,,,,,,,,,,,,,,,,0,0,0,0,0,5,5,4,,,,,,,,,,,,,,,,,,,,,,,,0.602778911591,0.550717115402,0.602778911591,0.332128047943,0.269294023514,0.934906959534,,,,,,,,j,1,0.700023889542,0.368055820465,0.268291950226,1.30296278,0.418013095856,0.338548898697,1.72097587585,0.368582010269,0.273264169693,2.08955788612,0.485362052917,0.407282114029,2.57491993904,f,1,3.53053379059,None,0.382714033127,0.300812005997,2.95763397217,0.533887863159,0.453300952911,3.49152183533,0.453813076019,0.389612913132,3.94533491135,0.500498056412,0.438785076141,4.44583296776,0.702303886414,0.63934803009,5.14813685417,0.617842912674,0.556837081909,5.76597976685,0.769377231598,0.70586180687,6.53535699844,,,,,,,,,,,,,,,,,,,,,,,,,,,,,,,,1,1,4,59.31824320979797,Dissertation,2018_Jul_18_1614,1,
,,,,,,,,,,,,,,,,,,,,,,,,,,,,,,,,,,,0,0,0,0,,,,,,,,,,,,,,,,,,,,,,,,,,,,,,,,,,,,,,,,,,,,,,,,,,,,,,,,,,,,,,,,,,,,,,,,,,,,,,,,,,,,,,,,,,,,,,,,,,,,,,,,,,,,,,,,1,1,4,59.31824320979797,Dissertation,2018_Jul_18_1614,1,
,,,,,,,,,,,,,,,,,,,,,,,,,,,,,,,,,,,,,,,,,,,,,,,,,,,,,,,,,,,,,,,,,,,,,,,,,,,,,,,,,,,,,,,,,,,,,,,,,,,,,,,,,,,,,,,,,,,,,,,space,49.4804439545,,,,,,,,,,,,,,,,,,,,,,,,,,,,,,1,1,4,59.31824320979797,Dissertation,2018_Jul_18_1614,1,
,,0,,,Verdadero,Falso,f,A,incongruent_left,Este año cuando se reunieron el grito sonó por todo el vecindario,0,1,1,0,f,0,124,Hicieron un escándalo cuando se vieron.,,,,,,,,,,,,,,,,,,,,,,,,,0,0,0,0,0,0,0,21,,,,,,,,,,,,,,,,0.817031145096,0.751442909241,0.817031145096,0.401741981506,0.354619979858,1.2187731266,,,,,,,,f,1,1.37612986565,0.401788949966,0.356944799423,1.62056207657,0.432971000671,0.368671178818,2.05353307724,0.469321012497,0.421066999435,2.52285408974,0.516580104828,0.437718153,3.03943419456,f,1,2.12901306152,,0.435062885284,0.354712963104,3.47449707985,0.500509023666,0.437656164169,3.97500610352,0.636429071426,0.555809020996,4.61143517494,0.701108932495,0.654315948486,5.31254410744,0.519012928009,0.468715190887,5.83155703545,0.417301177979,0.372932910919,6.24885821342,,,,,,None,None,,,,,,,,,,,,,,,,,,,,,,,,,,,,1,1,4,59.31824320979797,Dissertation,2018_Jul_18_1614,1,
,,0,,,Verdadero,Falso,j,A,incongruent_right,María acomodó las revistas que Gabriela dejó bajo la cama en el librero cuando las encontró,1,1,1,0,j,1,15,Las revistas de Gabriela están escondidas bajo la cama.,,,,,,,,,,,,,,,,,,,,,,,,,0,0,0,0,0,1,1,14,,,,,,,,,,,,,,,,0.632297992706,0.584073066711,0.632297992706,0.38330411911,0.305819034576,1.01560211182,,,,,,,,j,1,0.90382194519,0.384816884995,0.305505037308,1.40041899681,0.468636035919,0.388868093491,1.86905503273,0.650950908661,0.589601039886,2.52000594139,0.617525100708,0.554322004318,3.1375310421,j,1,6.2377679348,,0.737294912338,0.638031959534,3.87482595444,0.849629163742,0.771189928055,4.72445511818,1.10373783112,1.03903913498,5.8281929493,0.485689163208,0.422264814377,6.3138821125,0.468276023865,0.406290054321,6.78215813637,0.465538978577,0.401573181152,7.24769711494,0.50314283371,0.438719034195,7.75083994865,,,None,None,0.621411085129,0.556181907654,8.37225103378,0.66370511055,0.584718942642,9.03595614433,0.452893972397,0.338180065155,9.48885011673,,,,,,,,,,,,,,,,,,,1,1,4,59.31824320979797,Dissertation,2018_Jul_18_1614,1,
,,1,,,Verdadero,Falso,f,A,congruent_right,Elena colocó la tarea que la Sra. Sánchez le dejó encima de su mesa en su cuaderno sin mirar la nota,1,1,0,0,j,0,16,A Elena no le importó su nota.,,,,,,,,,,,,,,,,,,,,,,,,,0,0,0,0,0,2,2,15,,,,,,,,,,,,,,,,0.667866945267,0.602230072021,0.667866945267,0.433200120926,0.35303401947,1.10106706619,,,,,,,,j,1,0.805857896805,0.335966825485,0.271838188171,1.43703389168,0.534062147141,0.450980901718,1.97109603882,0.568670988083,0.50559592247,2.5397670269,0.534096002579,0.451063871384,3.07386302948,j,0,4.94757580757,,1.05295991898,0.97282910347,4.12682294846,0.48374915123,0.402565002441,4.61057209969,0.603179931641,0.541162014008,5.21375203133,0.484565973282,0.404975891113,5.69831800461,0.63298201561,0.550918102264,6.33130002022,0.553339004517,0.48733997345,6.88463902473,0.485077857971,0.423232793808,7.36971688271,,,None,None,0.551285028458,0.485641002655,7.92100191116,0.668146133423,0.588907957077,8.58914804459,0.466660022736,0.382996082306,9.05580806732,0.585822820663,0.504823923111,9.64163088799,0.652340173721,0.572257041931,10.2939710617,0.550029039383,0.470833063126,10.8440001011,0.603227853775,0.539031982422,11.4472279549,0.467581987381,0.387882947922,11.9148099422,,,,1,1,4,59.31824320979797,Dissertation,2018_Jul_18_1614,1,
,,1,,,Verdadero,Falso,f,A,congruent_right,a,0,0,0,0,j,0,312,a,,,,,,,,,,,,,,,,,,,,,,,,,0,0,0,0,0,3,3,71,,,,,,,,,,,,,,,,,,,,,,,,,,,,,j,1,0.595502138138,,,,,,,,,,,,,None,0,,,,,,,,,,,,,,,,,,,,,,,,,,None,None,,,,,,,,,,,,,,,,,,,,,,,,,,,,1,1,4,59.31824320979797,Dissertation,2018_Jul_18_1614,1,
,,0,,,Verdadero,Falso,j,A,incongruent_left,Mis amigas se reunieron en la escuela para ir a jugar fútbol,0,0,1,0,f,0,209,Jugaron béisbol mis amigas.  ,,,,,,,,,,,,,,,,,,,,,,,,,0,0,0,0,0,4,4,38,,,,,,,,,,,,,,,,0.653464078903,0.623842000961,0.653464078903,0.501171827316,0.436060905457,1.15463590622,,,,,,,,f,1,0.787319898605,0.583323001862,0.520679950714,1.73795890808,0.46959900856,0.422068119049,2.20755791664,0.634526014328,0.569128990173,2.84208393097,0.634896993637,0.588207006454,3.47698092461,j,1,1.82255291939,,0.550340175629,0.502088069916,4.02732110023,0.60345697403,0.555729150772,4.63077807426,0.518440961838,0.455491065979,5.1492190361,0.566545963287,0.522003889084,5.71576499939,0.385566949844,0.322416067123,6.10133194923,0.568469047546,0.523128032684,6.66980099678,,,,,,None,None,,,,,,,,,,,,,,,,,,,,,,,,,,,,1,1,4,59.31824320979797,Dissertation,2018_Jul_18_1614,1,
,,0,,,Verdadero,Falso,j,A,single_left,Mis hijas están saltando la cuerda en el jardín,0,0,0,1,f,0,226,A mis hijas no les gusta jugar en el jardín.,,,,,,,,,,,,,,,,,,,,,,,,,0,0,0,0,0,5,5,55,,,,,,,,,,,,,,,,0.616661071777,0.584280014038,0.616661071777,0.417755126953,0.373701095581,1.03441619873,,,,,,,,f,1,0.507006883621,0.551846981049,0.505976915359,1.58626317978,0.534540891647,0.491030931473,2.12080407143,0.719365119934,0.657185792923,2.84016919136,0.701409816742,0.637212991714,3.5415790081,j,1,3.45020008087,,0.635167121887,0.589575052261,4.17674612999,0.482600927353,0.434689998627,4.65934705734,0.553511142731,0.501893043518,5.21285820007,,,,,,,,,,,,,,,None,None,,,,,,,,,,,,,,,,,,,,,,,,,,,,1,1,4,59.31824320979797,Dissertation,2018_Jul_18_1614,1,
,,1,,,Verdadero,Falso,f,A,congruent_left,a,0,0,0,0,f,0,307,a,,,,,,,,,,,,,,,,,,,,,,,,,0,0,0,0,0,6,6,66,,,,,,,,,,,,,,,,,,,,,,,,,,,,,f,1,0.922900915146,,,,,,,,,,,,,None,0,,,,,,,,,,,,,,,,,,,,,,,,,,None,None,,,,,,,,,,,,,,,,,,,,,,,,,,,,1,1,4,59.31824320979797,Dissertation,2018_Jul_18_1614,1,
,,1,,,Verdadero,Falso,f,A,congruent_right,Cuando era niña Inés saltaba la cuerda mucho ,0,0,0,0,j,0,211,Inés sabe saltar la cuerda.,,,,,,,,,,,,,,,,,,,,,,,,,0,0,0,0,0,7,7,40,,,,,,,,,,,,,,,,0.0819900035858,0.0552670955658,0.0819900035858,0.953170061111,0.906920909882,1.0351600647,,,,,,,,j,1,0.655719995499,0.600286006927,0.553492069244,1.63544607162,0.45269203186,0.407124996185,2.08813810349,0.434428930283,0.370129823685,2.52256703377,0.550968170166,0.505495071411,3.07353520393,f,1,3.19534087181,,0.46880698204,0.4224588871,3.54234218597,0.500123977661,0.454111814499,4.04246616364,,,,,,,,,,,,,,,,,,None,None,,,,,,,,,,,,,,,,,,,,,,,,,,,,1,1,4,59.31824320979797,Dissertation,2018_Jul_18_1614,1,
,,0,,,Verdadero,Falso,j,A,incongruent_right,Mientras el padre leía la biblia antigua se partió en dos ,1,1,1,0,j,1,7,La biblia se quedó intacta.,,,,,,,,,,,,,,,,,,,,,,,,,0,0,0,0,0,8,8,6,,,,,,,,,,,,,,,,0.582025051117,0.541411876678,0.582025051117,0.452955007553,0.406270027161,1.03498005867,,,,,,,,j,1,0.704903841019,0.500627994537,0.437901973724,1.53560805321,0.500854969025,0.437650918961,2.03646302223,0.435281038284,0.370700836182,2.47174406052,0.402070045471,0.35693693161,2.87381410599,j,1,1.82262682915,,0.466570854187,0.419394016266,3.34038496017,0.51890206337,0.472297906876,3.85928702354,0.534826993942,0.488551139832,4.39411401749,0.551893949509,0.50320982933,4.946007967,0.417936086655,0.371964931488,5.36394405365,,,,,,,,,None,None,,,,,,,,,,,,,,,,,,,,,,,,,,,,1,1,4,59.31824320979797,Dissertation,2018_Jul_18_1614,1,
,,1,,,Verdadero,Falso,f,A,congruent_left,Después de que comieron el pollo se enfrió inmediatamente ,1,1,0,0,f,0,1,Comieron el pollo caliente.,,,,,,,,,,,,,,,,,,,,,,,,,0,0,0,0,0,9,9,0,,,,,,,,,,,,,,,,0.636586904526,0.601124048233,0.636586904526,0.383032083511,0.321298122406,1.01961898804,,,,,,,,f,1,0.536404132843,0.418036937714,0.372045993805,1.43765592575,0.434028148651,0.369799137115,1.8716840744,0.468459844589,0.389297008514,2.34014391899,0.451910018921,0.385257959366,2.79205393791,f,1,3.06201195717,,0.600094079971,0.55357503891,3.39214801788,0.486124038696,0.439253091812,3.87827205658,0.65163397789,0.589306116104,4.52990603447,,,,,,,,,,,,,,,None,None,,,,,,,,,,,,,,,,,,,,,,,,,,,,1,1,4,59.31824320979797,Dissertation,2018_Jul_18_1614,1,
,,0,,,Verdadero,Falso,j,A,single_left,Los estudiantes hicieron el trabajo en equipo en la biblioteca,0,0,0,1,f,0,202,Los estudiantes hicieron la tarea en el café.,,,,,,,,,,,,,,,,,,,,,,,,,0,0,0,0,0,10,10,31,,,,,,,,,,,,,,,,0.667459011078,0.6276948452,0.667459011078,0.468445777893,0.417658090591,1.13590478897,,,,,,,,f,1,0.705430030823,0.568654060364,0.521598815918,1.70455884933,0.534260988235,0.47234916687,2.23881983757,0.468698978424,0.407263040543,2.70751881599,0.566035032272,0.504577875137,3.27355384827,j,1,2.21144294739,,0.47020316124,0.423000097275,3.74375700951,0.568157911301,0.505618095398,4.31191492081,0.534240961075,0.472608089447,4.84615588188,0.535215139389,0.472397089005,5.38137102127,,,,,,,,,,,,None,None,,,,,,,,,,,,,,,,,,,,,,,,,,,,1,1,4,59.31824320979797,Dissertation,2018_Jul_18_1614,1,
,,0,,,Verdadero,Falso,f,A,single_right,El cocinero lava las verduras en el fregadero,0,0,0,1,j,0,204,El cocinero prepara las verduras él mismo.,,,,,,,,,,,,,,,,,,,,,,,,,0,0,0,0,0,11,11,33,,,,,,,,,,,,,,,,0.666448116302,0.639124155045,0.666448116302,0.569869041443,0.519196987152,1.23631715775,,,,,,,,j,1,0.688898086548,0.818355798721,0.769750833511,2.05467295647,0.601493120193,0.557244062424,2.65616607666,0.986268043518,0.936565876007,3.64243412018,0.651203870773,0.606701850891,4.29363799095,f,1,3.41484117508,,0.418431043625,0.357368946075,4.71206903458,0.382591962814,0.335203886032,5.09466099739,,,,,,,,,,,,,,,,,,None,None,,,,,,,,,,,,,,,,,,,,,,,,,,,,1,1,4,59.31824320979797,Dissertation,2018_Jul_18_1614,1,
,,1,,,Verdadero,Falso,f,A,congruent_right,Los trabajadores colocaron los avisos que su jefe les dejó en la carpeta en la puerta de la oficina,1,1,0,0,j,0,20,Los avisos están colgados en la puerta.,,,,,,,,,,,,,,,,,,,,,,,,,0,0,0,0,0,12,12,19,,,,,,,,,,,,,,,,0.868390083313,0.79780292511,0.868390083313,0.484701871872,0.402364015579,1.35309195518,,,,,,,,j,1,0.691053152084,0.516382932663,0.434403896332,1.86947488785,0.502665042877,0.438333034515,2.37213993073,0.602033138275,0.522633075714,2.974173069,0.59984588623,0.520928144455,3.57401895523,f,1,3.05941987038,,0.686830997467,0.623873949051,4.2608499527,0.48434305191,0.384826898575,4.74519300461,0.535049915314,0.456378936768,5.28024291992,0.516363143921,0.435126781464,5.79660606384,0.536401033401,0.472331047058,6.33300709724,0.46519780159,0.402328014374,6.79820489883,0.469909191132,0.404942989349,7.26811408997,,,None,None,0.768095016479,0.686395168304,8.03620910645,0.886652946472,0.805980920792,8.92286205292,0.551733016968,0.484940052032,9.47459506989,0.468183040619,0.390058040619,9.9427781105,0.46768283844,0.389094114304,10.4104609489,0.518356084824,0.435456991196,10.9288170338,,,,,,,,,,1,1,4,59.31824320979797,Dissertation,2018_Jul_18_1614,1,
,,1,,,Verdadero,Falso,j,A,congruent_right,El pastel en el refrigerador es para el cumpleaños de Tomás,0,0,0,0,j,0,207,Tomás no cumple años pronto.,,,,,,,,,,,,,,,,,,,,,,,,,0,0,0,0,0,13,13,36,,,,,,,,,,,,,,,,0.700955152512,0.655658960342,0.700955152512,0.331801891327,0.284285068512,1.03275704384,,,,,,,,j,1,0.58931016922,0.43714094162,0.388643980026,1.46989798546,0.549718141556,0.488350868225,2.01961612701,0.53418302536,0.468625068665,2.55379915237,0.770402908325,0.721334934235,3.3242020607,f,0,3.32839798927,,0.518189907074,0.472365140915,3.84239196777,0.584311008453,0.53848195076,4.42670297623,0.502394199371,0.45269203186,4.9290971756,0.53421998024,0.489217996597,5.46331715584,0.451612949371,0.390882015228,5.91493010521,,,,,,,,,None,None,,,,,,,,,,,,,,,,,,,,,,,,,,,,1,1,4,59.31824320979797,Dissertation,2018_Jul_18_1614,1,
,,1,,,Verdadero,Falso,f,A,congruent_left,Antes de que bebieran el vino se volvió vinagre ,1,1,0,0,f,0,5,No tomaron vino porque se había echado a perder.,,,,,,,,,,,,,,,,,,,,,,,,,0,0,0,0,0,14,14,4,,,,,,,,,,,,,,,,0.686682939529,0.657405853271,0.686682939529,0.350491046906,0.306260824203,1.03717398643,,,,,,,,f,1,1.3575861454,0.368343114853,0.318724155426,1.40551710129,0.384173870087,0.338542938232,1.78969097137,0.384042978287,0.338419914246,2.17373394966,0.451541185379,0.406265974045,2.62527513504,f,1,6.10399389267,,0.434700965881,0.389399766922,3.05997610092,0.448967933655,0.403312921524,3.50894403458,0.58650803566,0.5346159935,4.09545207024,,,,,,,,,,,,,,,None,None,,,,,,,,,,,,,,,,,,,,,,,,,,,,1,1,4,59.31824320979797,Dissertation,2018_Jul_18_1614,1,
,,0,,,Verdadero,Falso,j,A,incongruent_left,Cuando los jardineros terminaron el jardín quedó lleno de flores,1,1,1,0,f,1,10,Los jardineros todavía no acaban su trabajo.,,,,,,,,,,,,,,,,,,,,,,,,,0,0,0,0,0,15,15,9,,,,,,,,,,,,,,,,0.586354970932,0.552731990814,0.586354970932,0.334487915039,0.273096084595,0.920842885971,,,,,,,,f,1,1.10424613953,0.401252985001,0.34076499939,1.32209587097,0.500714063644,0.43478178978,1.82280993462,0.534671068192,0.488909959793,2.35748100281,0.518718957901,0.455947875977,2.87619996071,f,0,4.03180098534,,0.534294128418,0.472973108292,3.41049408913,0.566967964172,0.504388093948,3.9774620533,0.535305976868,0.489025115967,4.51276803017,0.601318836212,0.553891181946,5.11408686638,,,,,,,,,,,,None,None,,,,,,,,,,,,,,,,,,,,,,,,,,,,1,1,4,59.31824320979797,Dissertation,2018_Jul_18_1614,1,
,,0,,,Verdadero,Falso,j,A,incongruent_left,Los novios montaron la mesa que su amigo les dejó en su porche en la cocina de su nuevo apartamento ,1,1,1,0,f,1,18,Los novios pusieron la mesa en su porche.,,,,,,,,,,,,,,,,,,,,,,,,,0,0,0,0,0,16,16,17,,,,,,,,,,,,,,,,0.669203042984,0.616400957108,0.669203042984,0.434328079224,0.356664896011,1.10353112221,,,,,,,,f,1,0.755686998367,0.60062789917,0.518128156662,1.70415902138,0.669701099396,0.588660955429,2.37386012077,0.53438782692,0.454623937607,2.90824794769,0.616567134857,0.534120082855,3.52481508255,j,1,4.29610490799,,0.703366041183,0.639134883881,4.22818112373,0.517288923264,0.435678958893,4.745470047,0.702178001404,0.617978096008,5.4476480484,0.702746868134,0.62024307251,6.15039491653,0.984911203384,0.904394865036,7.13530611992,0.634355783463,0.569204092026,7.76966190338,0.419641017914,0.354505062103,8.1893029213,,,None,None,0.534529209137,0.456763029099,8.72383213043,0.451346874237,0.371239900589,9.17517900467,0.55017209053,0.450648069382,9.7253510952,0.519176959991,0.43704199791,10.2445280552,0.534015893936,0.454090833664,10.7785439491,0.501145124435,0.418859958649,11.2796890736,0.519408941269,0.452307939529,11.7990980148,,,,,,,1,1,4,59.31824320979797,Dissertation,2018_Jul_18_1614,1,
,,1,,,Verdadero,Falso,f,A,congruent_left,La computadora de Jessica falla con frecuencia,0,0,0,0,f,0,217,Jessica necesita consultar con un técnico.,,,,,,,,,,,,,,,,,,,,,,,,,0,0,0,0,0,17,17,46,,,,,,,,,,,,,,,,0.733060836792,0.698460102081,0.733060836792,0.416836977005,0.368177890778,1.1498978138,,,,,,,,f,1,0.621534109116,0.635906219482,0.586322784424,1.78580403328,0.486392974854,0.439074993134,2.27219700813,0.615993022919,0.568364143372,2.88819003105,0.620000839233,0.571524858475,3.50819087029,f,1,2.00838494301,,0.668121099472,0.621631145477,4.17631196976,,,,,,,,,,,,,,,,,,,,,None,None,,,,,,,,,,,,,,,,,,,,,,,,,,,,1,1,4,59.31824320979797,Dissertation,2018_Jul_18_1614,1,
,,1,,,Verdadero,Falso,f,A,congruent_left,El pescado está listo para comer,0,0,0,0,f,0,229,Vamos a comer pescado.,,,,,,,,,,,,,,,,,,,,,,,,,0,0,0,0,0,18,18,58,,,,,,,,,,,,,,,,0.549710035324,0.524775981903,0.549710035324,0.485624074936,0.456424951553,1.03533411026,,,,,,,,f,1,0.718561887741,0.53436088562,0.488168954849,1.56969499588,0.468723058701,0.422721862793,2.03841805458,0.550574064255,0.504616975784,2.58899211884,0.434990882874,0.389152050018,3.02398300171,f,1,1.88886594772,,,,,,,,,,,,,,,,,,,,,,,,,None,None,,,,,,,,,,,,,,,,,,,,,,,,,,,,1,1,4,59.31824320979797,Dissertation,2018_Jul_18_1614,1,
,,1,,,Verdadero,Falso,f,A,congruent_right,Mi hija pintó el cuadro que está en la pared de mi oficina,0,0,0,0,j,0,219,Tengo arte colgado en mi oficina.,,,,,,,,,,,,,,,,,,,,,,,,,0,0,0,0,0,19,19,48,,,,,,,,,,,,,,,,0.617795944214,0.583687067032,0.617795944214,0.349271059036,0.302815914154,0.96706700325,,,,,,,,j,1,0.706012010574,0.335410118103,0.28836607933,1.30247712135,0.416178941727,0.369136095047,1.71865606308,0.486110925674,0.437026023865,2.20476698875,0.468261957169,0.405815839767,2.67302894592,f,1,2.49461007118,,0.484362125397,0.421984910965,3.15739107132,0.46831703186,0.406565189362,3.62570810318,0.551429986954,0.50593996048,4.17713809013,0.567434072495,0.502883911133,4.74457216263,1.15361595154,1.10715198517,5.89818811417,0.349067926407,0.302847146988,6.24725604057,0.502922058105,0.455302000046,6.75017809868,,,None,None,,,,,,,,,,,,,,,,,,,,,,,,,,,,1,1,4,59.31824320979797,Dissertation,2018_Jul_18_1614,1,
,,0,,,Verdadero,Falso,f,A,incongruent_right,Jaime metió el chaleco que su pareja dejó en el clóset cuando regresaron,0,1,1,0,j,0,133,La pareja de Jaime no colgó su chaleco cuando volvió. ,,,,,,,,,,,,,,,,,,,,,,,,,0,0,0,0,0,20,20,26,,,,,,,,,,,,,,,,0.584675073624,0.534998178482,0.584675073624,0.417346954346,0.355456113815,1.00202202797,,,,,,,,j,1,1.10891604424,0.434975147247,0.368133068085,1.43699717522,0.551934957504,0.48951792717,1.98893213272,0.417717933655,0.338500022888,2.40665006638,0.43413901329,0.372344017029,2.84078907967,f,1,5.66980099678,,0.501348018646,0.440338850021,3.34213709831,0.466127872467,0.386123180389,3.80826497078,0.419363021851,0.35097694397,4.22762799263,0.618911027908,0.557368993759,4.84653902054,0.885790109634,0.823230028152,5.73232913017,0.700778961182,0.638391017914,6.43310809135,0.46834897995,0.42268204689,6.9014570713,,,None,None,,,,,,,,,,,,,,,,,,,,,,,,,,,,1,1,4,59.31824320979797,Dissertation,2018_Jul_18_1614,1,
,,0,,,Verdadero,Falso,j,A,incongruent_left,La pantalla de mi computadora se me rompió,0,0,1,0,f,0,221,Mi computadora está en una condición perfecta.,,,,,,,,,,,,,,,,,,,,,,,,,0,0,0,0,0,21,21,50,,,,,,,,,,,,,,,,0.634582042694,0.600496053696,0.634582042694,0.283275842667,0.238613128662,0.917857885361,,,,,,,,f,1,1.15442895889,0.366307020187,0.319191932678,1.28416490555,0.453315973282,0.404767036438,1.73748087883,0.516983985901,0.452517986298,2.25446486473,0.485376119614,0.440498828888,2.73984098434,j,1,3.28049993515,,0.435261011124,0.373088121414,3.17510199547,0.668490886688,0.622881174088,3.84359288216,,,,,,,,,,,,,,,,,,None,None,,,,,,,,,,,,,,,,,,,,,,,,,,,,1,1,4,59.31824320979797,Dissertation,2018_Jul_18_1614,1,
,,0,,,Verdadero,Falso,f,A,single_left,Antes de correr su primer maratón María tuvo que correr mucho para practicar,0,0,0,1,f,0,210,María corrió el maratón sin entrenarse.,,,,,,,,,,,,,,,,,,,,,,,,,0,0,0,0,0,22,22,39,,,,,,,,,,,,,,,,0.200023889542,0.149295091629,0.200023889542,0.551289081573,0.485860109329,0.751312971115,,,,,,,,f,1,0.555232048035,0.267138957977,0.206703901291,1.01845192909,0.434741020203,0.351686000824,1.4531929493,0.40020108223,0.338129997253,1.85339403152,0.467003822327,0.402939081192,2.32039785385,j,0,2.22488284111,,0.653648138046,0.585778951645,2.9740459919,0.617867946625,0.557168960571,3.59191393852,0.568160057068,0.505254983902,4.16007399559,0.468546867371,0.405299186707,4.62862086296,0.517034053802,0.453329086304,5.14565491676,0.451794147491,0.38502407074,5.59744906425,0.433238983154,0.366448163986,6.03068804741,,,None,None,,,,,,,,,,,,,,,,,,,,,,,,,,,,1,1,4,59.31824320979797,Dissertation,2018_Jul_18_1614,1,
,,0,,,Verdadero,Falso,j,A,incongruent_left,Cuando la participante se rindió la respuesta le pareció obvia,0,1,1,0,f,0,128,La participante adivinó la respuesta correcta.,,,,,,,,,,,,,,,,,,,,,,,,,0,0,0,0,0,23,23,23,,,,,,,,,,,,,,,,0.58456993103,0.538726091385,0.58456993103,0.317744016647,0.272451162338,0.902313947678,,,,,,,,f,1,0.610213041306,0.516319036484,0.452584028244,1.41863298416,0.669924020767,0.624711036682,2.08855700493,0.51798582077,0.455040216446,2.6065428257,0.618076086044,0.555080890656,3.22461891174,j,1,4.55064606667,,0.701932907104,0.636991977692,3.92655181885,0.567552089691,0.522284984589,4.49410390854,0.619426965714,0.55748796463,5.11353087425,0.600255012512,0.540232896805,5.71378588676,,,,,,,,,,,,None,None,,,,,,,,,,,,,,,,,,,,,,,,,,,,1,1,4,59.31824320979797,Dissertation,2018_Jul_18_1614,1,
,,0,,,Verdadero,Falso,f,A,single_left,Mientras la esposa toca el piano el esposo lava los platos,0,0,0,1,f,0,214,La esposa sabe tocar un instrumento.,,,,,,,,,,,,,,,,,,,,,,,,,0,0,0,0,0,24,24,43,,,,,,,,,,,,,,,,0.467534065247,0.433743953705,0.467534065247,0.350323915482,0.305921077728,0.817857980728,,,,,,,,f,1,0.740957975388,0.368798971176,0.305917024612,1.1866569519,0.449690103531,0.387041091919,1.63634705544,0.467036008835,0.418895959854,2.10338306427,0.452954053879,0.406524896622,2.55633711815,f,1,2.47382616997,,0.501237869263,0.439869165421,3.05757498741,0.501063108444,0.439635038376,3.55863809586,0.501622915268,0.437170982361,4.06026101112,0.501329898834,0.439828157425,4.56159090996,0.43476319313,0.373799085617,4.99635410309,,,,,,,,,None,None,,,,,,,,,,,,,,,,,,,,,,,,,,,,1,1,4,59.31824320979797,Dissertation,2018_Jul_18_1614,1,
,,0,,,Verdadero,Falso,f,A,incongruent_right,La madre metió los vasos sucios que su hija dejó en el lavaplatos cuando acabó de comer,0,1,1,0,j,0,137,La madre limpió después de la comida.,,,,,,,,,,,,,,,,,,,,,,,,,0,0,0,0,0,25,25,28,,,,,,,,,,,,,,,,0.617206811905,0.565237045288,0.617206811905,0.350546121597,0.267075061798,0.967752933502,,,,,,,,j,1,0.841814041138,0.501940965652,0.438930034637,1.46969389915,0.432739019394,0.369200944901,1.90243291855,0.435692071915,0.371201038361,2.33812499046,0.501632928848,0.423403978348,2.83975791931,j,0,3.91264891624,,0.518497943878,0.438424110413,3.35825586319,0.451095104218,0.371350049973,3.80935096741,0.484297990799,0.405645847321,4.29364895821,0.952944993973,0.890607118607,5.24659395218,0.568192005157,0.507710933685,5.81478595734,0.350072860718,0.272409915924,6.16485881805,0.435347080231,0.372541904449,6.60020589828,,,None,None,0.584543943405,0.504678964615,7.18474984169,0.602122068405,0.539326906204,7.7868719101,1.67025589943,1.60826206207,9.45712780952,0.433207035065,0.368306875229,9.89033484459,,,,,,,,,,,,,,,,1,1,4,59.31824320979797,Dissertation,2018_Jul_18_1614,1,
,,0,,,Verdadero,Falso,j,A,incongruent_left,Antes de que cantaran esa canción no era muy conocida ,1,1,1,0,f,1,6,Todos ya se sabían la canción antes de la fiesta.,,,,,,,,,,,,,,,,,,,,,,,,,0,0,0,0,0,26,26,5,,,,,,,,,,,,,,,,0.498783826828,0.464876174927,0.498783826828,0.285597085953,0.238379001617,0.784380912781,,,,,,,,f,1,0.719387054443,0.334474086761,0.272514104843,1.11885499954,0.434099912643,0.387804031372,1.55295491219,0.432545900345,0.385478973389,1.98550081253,0.452618122101,0.404221057892,2.43811893463,j,1,2.29006910324,,0.485502004623,0.422268867493,2.92362093925,0.468150854111,0.404519796371,3.39177179337,0.534543037415,0.490103006363,3.92631483078,0.586095094681,0.524854183197,4.51240992546,,,,,,,,,,,,None,None,,,,,,,,,,,,,,,,,,,,,,,,,,,,1,1,4,59.31824320979797,Dissertation,2018_Jul_18_1614,1,
,,0,,,Verdadero,Falso,j,A,incongruent_right,Los artistas van a donar tres estatuas a la ciudad,0,0,1,0,j,0,203,La ciudad va a comprar las estatuas.,,,,,,,,,,,,,,,,,,,,,,,,,0,0,0,0,0,27,27,32,,,,,,,,,,,,,,,,0.467120885849,0.435844182968,0.467120885849,0.39939904213,0.353219032288,0.866519927979,,,,,,,,j,1,0.702768087387,0.402671098709,0.354933023453,1.26919102669,0.501730918884,0.453440904617,1.77092194557,0.501569032669,0.439810991287,2.27249097824,0.467940092087,0.407346963882,2.74043107033,j,1,3.58023691177,,0.500655889511,0.45454287529,3.24108695984,0.551787137985,0.485871076584,3.79287409782,0.417548894882,0.35703086853,4.21042299271,0.382153987885,0.334654092789,4.59257698059,,,,,,,,,,,,None,None,,,,,,,,,,,,,,,,,,,,,,,,,,,,1,1,4,59.31824320979797,Dissertation,2018_Jul_18_1614,1,
,,1,,,Verdadero,Falso,f,A,congruent_right,a,0,0,0,0,j,0,304,a,,,,,,,,,,,,,,,,,,,,,,,,,0,0,0,0,0,28,28,63,,,,,,,,,,,,,,,,,,,,,,,,,,,,,j,1,0.676065921783,,,,,,,,,,,,,None,0,,,,,,,,,,,,,,,,,,,,,,,,,,None,None,,,,,,,,,,,,,,,,,,,,,,,,,,,,1,1,4,59.31824320979797,Dissertation,2018_Jul_18_1614,1,
,,1,,,Verdadero,Falso,f,A,congruent_right,a,0,0,0,0,j,0,308,a,,,,,,,,,,,,,,,,,,,,,,,,,0,0,0,0,0,29,29,67,,,,,,,,,,,,,,,,,,,,,,,,,,,,,j,1,0.607422113419,,,,,,,,,,,,,None,0,,,,,,,,,,,,,,,,,,,,,,,,,,None,None,,,,,,,,,,,,,,,,,,,,,,,,,,,,1,1,4,59.31824320979797,Dissertation,2018_Jul_18_1614,1,
,,0,,,Verdadero,Falso,f,A,incongruent_right,El mecánico arregló el carro rápido,0,0,1,0,j,0,227,El mécanico trabaja de una manera eficiente.,,,,,,,,,,,,,,,,,,,,,,,,,0,0,0,0,0,30,30,56,,,,,,,,,,,,,,,,0.69913816452,0.672162055969,0.69913816452,0.353041887283,0.322762012482,1.0521800518,,,,,,,,j,1,0.639657020569,0.484441995621,0.438620090485,1.53662204742,0.234063148499,0.187736034393,1.77068519592,0.51736497879,0.471374988556,2.28805017471,0.569383859634,0.523018121719,2.85743403435,f,1,3.69326806068,,,,,,,,,,,,,,,,,,,,,,,,,None,None,,,,,,,,,,,,,,,,,,,,,,,,,,,,1,1,4,59.31824320979797,Dissertation,2018_Jul_18_1614,1,
,,0,,,Verdadero,Falso,f,A,single_left,Mi padre me partió el sándwich en dos para llevarlo a clase,0,0,0,1,f,0,222,Me compré la comida en la escuela. ,,,,,,,,,,,,,,,,,,,,,,,,,0,0,0,0,0,31,31,51,,,,,,,,,,,,,,,,0.66681098938,0.629414081573,0.66681098938,0.367929935455,0.304491043091,1.03474092484,,,,,,,,f,1,0.570286035538,0.334218978882,0.287847995758,1.36895990372,0.349426984787,0.284552812576,1.7183868885,0.484507083893,0.435761928558,2.2028939724,0.335821866989,0.287941932678,2.53871583939,j,0,1.50751209259,,0.38371515274,0.337137937546,2.92243099213,0.550624847412,0.502665042877,3.47305583954,0.419496059418,0.371705055237,3.89255189896,0.385087966919,0.322361946106,4.27763986588,0.448362112045,0.385117053986,4.72600197792,0.435778856277,0.38972902298,5.1617808342,,,,,,None,None,,,,,,,,,,,,,,,,,,,,,,,,,,,,1,1,4,59.31824320979797,Dissertation,2018_Jul_18_1614,1,
,,0,,,Verdadero,Falso,f,A,incongruent_right,Cuando el escultor volvió la obra estaba instalada en el parque,0,1,1,0,j,0,129,La obra era para el público.,,,,,,,,,,,,,,,,,,,,,,,,,0,0,0,0,0,32,32,24,,,,,,,,,,,,,,,,0.617786169052,0.586664915085,0.617786169052,0.484338998795,0.421840190887,1.10212516785,,,,,,,,j,1,0.722064971924,0.399801969528,0.350239992142,1.50192713737,0.402924060822,0.355471134186,1.9048511982,0.549751996994,0.488582134247,2.45460319519,0.352593898773,0.302671909332,2.80719709396,f,1,3.72960996628,,0.5181889534,0.469074010849,3.32538604736,0.584856987,0.522441864014,3.91024303436,0.400490045547,0.339555978775,4.31073307991,0.483504056931,0.420592069626,4.79423713684,0.433501958847,0.368182897568,5.22773909569,,,,,,,,,None,None,,,,,,,,,,,,,,,,,,,,,,,,,,,,1,1,4,59.31824320979797,Dissertation,2018_Jul_18_1614,1,
,,0,,,Verdadero,Falso,j,A,single_right,Cuando Dora ganó la lotería se compró un reloj de diamantes,0,0,0,1,j,0,216,Dora ahorró todo el dinero que ganó. ,,,,,,,,,,,,,,,,,,,,,,,,,0,0,0,0,0,33,33,45,,,,,,,,,,,,,,,,0.482371091843,0.443430900574,0.482371091843,0.26784491539,0.219151973724,0.750216007233,,,,,,,,j,1,0.672785043716,0.484044075012,0.435204029083,1.23426008224,0.653375864029,0.606611013412,1.88763594627,0.550569057465,0.488371133804,2.43820500374,0.550124168396,0.501986980438,2.98832917213,j,1,1.72482991219,,0.353217840195,0.305155038834,3.34154701233,0.518330097198,0.472929000854,3.85987710953,0.517389059067,0.471704959869,4.37726616859,0.401747941971,0.35292506218,4.77901411057,0.415601968765,0.369093894958,5.19461607933,,,,,,,,,None,None,,,,,,,,,,,,,,,,,,,,,,,,,,,,1,1,4,59.31824320979797,Dissertation,2018_Jul_18_1614,1,
,,0,,,Verdadero,Falso,j,A,incongruent_right,Siempre que mi hermana maneja el carro suena raro ,1,1,1,0,j,1,3,El carro está en una condición perfecta.,,,,,,,,,,,,,,,,,,,,,,,,,0,0,0,0,0,34,34,2,,,,,,,,,,,,,,,,0.40003323555,0.370017051697,0.40003323555,0.250696897507,0.203748941422,0.650730133057,,,,,,,,j,1,0.707144021988,0.301030874252,0.25573682785,0.951761007309,0.384210109711,0.33818602562,1.33597111702,0.332670927048,0.268566131592,1.66864204407,0.501672029495,0.452809095383,2.17031407356,j,1,2.0890879631,,0.552078962326,0.50476193428,2.72239303589,0.433464050293,0.385666131973,3.15585708618,0.48509311676,0.435976982117,3.64095020294,,,,,,,,,,,,,,,None,None,,,,,,,,,,,,,,,,,,,,,,,,,,,,1,1,4,59.31824320979797,Dissertation,2018_Jul_18_1614,1,
,,1,,,Verdadero,Falso,f,A,congruent_left,Los autobuses en Madrid tienen más de quince pies de altura ,0,0,0,0,f,0,225,Los autobuses madrileños son muy altos.,,,,,,,,,,,,,,,,,,,,,,,,,0,0,0,0,0,35,35,54,,,,,,,,,,,,,,,,0.533885002136,0.494684934616,0.533885002136,0.533596038818,0.471109867096,1.06748104095,,,,,,,,f,1,0.638840913773,0.266797065735,0.220063924789,1.33427810669,0.670097827911,0.622786998749,2.0043759346,0.566289186478,0.502063989639,2.57066512108,0.436108827591,0.387610197067,3.00677394867,f,1,1.8102221489,,0.485018014908,0.43989610672,3.49179196358,0.534312009811,0.469731092453,4.02610397339,0.484375,0.422549009323,4.51047897339,0.48484992981,0.439665079117,4.9953289032,0.366070985794,0.320096969604,5.36139988899,,,,,,,,,None,None,,,,,,,,,,,,,,,,,,,,,,,,,,,,1,1,4,59.31824320979797,Dissertation,2018_Jul_18_1614,1,
,,1,,,Verdadero,Falso,f,A,congruent_left,Justo después de bajarme el autobús falló de repente ,0,0,0,0,f,0,213,Deben mandar el autobús al mecánico.,,,,,,,,,,,,,,,,,,,,,,,,,0,0,0,0,0,36,36,42,,,,,,,,,,,,,,,,0.619822978973,0.586328029633,0.619822978973,0.266859054565,0.220525026321,0.886682033539,,,,,,,,f,1,0.705228090286,0.383169174194,0.316051006317,1.26985120773,0.266743898392,0.217288017273,1.53659510612,0.586893081665,0.535409927368,2.12348818779,0.334221839905,0.289413928986,2.45771002769,f,1,4.01501011848,,0.550637960434,0.487638950348,3.00834798813,0.402240991592,0.354695081711,3.41058897972,0.417735099792,0.37175989151,3.82832407951,,,,,,,,,,,,,,,None,None,,,,,,,,,,,,,,,,,,,,,,,,,,,,1,1,4,59.31824320979797,Dissertation,2018_Jul_18_1614,1,
,,0,,,Verdadero,Falso,f,A,single_right,Mi hermana guardó en su celular el número del chico guapo,0,0,0,1,j,0,208,A mi hermana le gustaría salir con el chico.,,,,,,,,,,,,,,,,,,,,,,,,,0,0,0,0,0,37,37,37,,,,,,,,,,,,,,,,0.517197132111,0.476418972015,0.517197132111,0.316319942474,0.253844976425,0.833517074585,,,,,,,,j,1,0.773511886597,0.553010940552,0.505839109421,1.38652801514,0.351076126099,0.305227994919,1.73760414124,0.468054056168,0.406518936157,2.2056581974,0.567886829376,0.522583961487,2.77354502678,f,1,3.01310801506,,0.450879096985,0.386826038361,3.22442412376,0.418133020401,0.371745109558,3.64255714417,0.535309076309,0.486746072769,4.17786622047,0.449690818787,0.382307052612,4.62755703926,0.484294176102,0.435455083847,5.11185121536,,,,,,,,,None,space,,,,,,,,,,,,,,,,,,,,,,,,,53.5445981026,,,1,1,4,59.31824320979797,Dissertation,2018_Jul_18_1614,1,
,,0,,,Verdadero,Falso,j,A,incongruent_right,Mientras el maestro descansaba el violín resonaba por todo el salón,0,1,1,0,j,0,125,El maestro tocaba el piano.,,,,,,,,,,,,,,,,,,,,,,,,,0,0,0,0,0,38,38,22,,,,,,,,,,,,,,,,0.716320991516,0.664375066757,0.716320991516,0.318922996521,0.255358934402,1.03524398804,,,,,,,,j,1,0.790449142456,0.41562795639,0.351436853409,1.45087194443,0.502083063126,0.451094865799,1.95295500755,1.00452303886,0.957271099091,2.95747804642,0.449289083481,0.382879972458,3.4067671299,j,1,2.36765408516,,0.552296876907,0.505111217499,3.95906400681,0.619203090668,0.555845975876,4.57826709747,0.501466989517,0.44006896019,5.07973408699,0.534673929214,0.47388792038,5.6144080162,0.433679103851,0.353312015533,6.04808712006,,,,,,,,,None,None,,,,,,,,,,,,,,,,,,,,,,,,,,,,1,1,4,59.31824320979797,Dissertation,2018_Jul_18_1614,1,
,,0,,,Verdadero,Falso,j,A,incongruent_right,La señora insertó la tarjeta que su pareja le dejó en su cartera en la máquina para pagar,1,1,1,0,j,1,19,La mujer puso la tarjeta en su cartera.,,,,,,,,,,,,,,,,,,,,,,,,,0,0,0,0,0,39,39,18,,,,,,,,,,,,,,,,0.517484903336,0.464019060135,0.517484903336,0.484830141068,0.419958114624,1.0023150444,,,,,,,,j,1,0.821137905121,0.735380887985,0.670011997223,1.73769593239,0.485390901566,0.417684078217,2.22308683395,0.38544011116,0.304651975632,2.60852694511,0.399087905884,0.3351790905,3.007614851,j,1,2.42474794388,,0.418562173843,0.352917194366,3.42617702484,0.418911933899,0.336819887161,3.84508895874,0.483911991119,0.404761075974,4.32900094986,0.568075895309,0.50629401207,4.89707684517,0.484953165054,0.421678066254,5.38203001022,0.552049875259,0.489409923553,5.93407988548,0.549994945526,0.47115111351,6.48407483101,,,None,None,0.569125175476,0.50602889061,7.05320000648,0.483517885208,0.402570962906,7.53671789169,0.467014074326,0.401711940765,8.00373196602,0.419440984726,0.350496053696,8.42317295074,0.384383916855,0.305998802185,8.8075568676,,,,,,,,,,,,,1,1,4,59.31824320979797,Dissertation,2018_Jul_18_1614,1,
,,0,,,Verdadero,Falso,j,A,incongruent_left,Mi mamá guardó la escultura que hizo en la clase en su mesa de trabajo,1,1,1,0,f,1,14,La escultura está en mi estudio de arte.,,,,,,,,,,,,,,,,,,,,,,,,,0,0,0,0,0,40,40,13,,,,,,,,,,,,,,,,0.584450960159,0.544567108154,0.584450960159,0.383943080902,0.304916143417,0.968394041061,,,,,,,,f,1,0.706825017929,0.334358930588,0.27164888382,1.30275297165,0.300289154053,0.239320993423,1.6030421257,0.485104799271,0.422740936279,2.08814692497,0.46768116951,0.38935303688,2.55582809448,j,1,5.23635601997,,0.501849889755,0.440242052078,3.05767798424,0.500849962234,0.440099000931,3.55852794647,0.518593072891,0.457576036453,4.07712101936,0.484466075897,0.419956207275,4.56158709526,0.450909852982,0.386514186859,5.01249694824,0.468014001846,0.402190923691,5.48051095009,0.501576185226,0.438830852509,5.98208713531,,,None,None,0.43306684494,0.37026309967,6.41515398026,0.402070045471,0.355046987534,6.81722402573,,,,,,,,,,,,,,,,,,,,,,1,1,4,59.31824320979797,Dissertation,2018_Jul_18_1614,1,
,,0,,,Verdadero,Falso,j,A,single_right,El señor gordo tomó un café solo,0,0,0,1,j,0,228,El señor estaba solo cuando bebió el café.,,,,,,,,,,,,,,,,,,,,,,,,,0,0,0,0,0,41,41,57,,,,,,,,,,,,,,,,0.451171159744,0.424824953079,0.451171159744,0.331691980362,0.266263008118,0.782863140106,,,,,,,,j,1,0.75647687912,0.284923791885,0.253650188446,1.06778693199,0.369467020035,0.335501909256,1.43725395203,0.500804185867,0.45538687706,1.93805813789,0.434459924698,0.387683868408,2.37251806259,f,0,9.39791584015,,0.449820041656,0.402894973755,2.82233810425,,,,,,,,,,,,,,,,,,,,,None,None,,,,,,,,,,,,,,,,,,,,,,,,,,,,1,1,4,59.31824320979797,Dissertation,2018_Jul_18_1614,1,
,,0,,,Verdadero,Falso,j,A,single_left,La participante brilló cuando ganó el maratón,0,0,0,1,f,0,218,La participante se quedó triste después del maratón.,,,,,,,,,,,,,,,,,,,,,,,,,0,0,0,0,0,42,42,47,,,,,,,,,,,,,,,,0.50049495697,0.473930120468,0.50049495697,0.268368005753,0.220372200012,0.768862962723,,,,,,,,f,1,0.754636049271,0.215822935104,0.167279958725,0.984685897827,0.469727993011,0.421922922134,1.45441389084,0.451510190964,0.406663894653,1.9059240818,0.418334007263,0.372722148895,2.32425808907,j,1,3.0796380043,,0.399492025375,0.353179931641,2.72375011444,,,,,,,,,,,,,,,,,,,,,None,None,,,,,,,,,,,,,,,,,,,,,,,,,,,,1,1,4,59.31824320979797,Dissertation,2018_Jul_18_1614,1,
,,0,,,Verdadero,Falso,f,A,single_left,a,0,0,0,1,f,0,305,a,,,,,,,,,,,,,,,,,,,,,,,,,0,0,0,0,0,43,43,64,,,,,,,,,,,,,,,,,,,,,,,,,,,,,f,1,0.405671834946,,,,,,,,,,,,,None,0,,,,,,,,,,,,,,,,,,,,,,,,,,None,None,,,,,,,,,,,,,,,,,,,,,,,,,,,,1,1,4,59.31824320979797,Dissertation,2018_Jul_18_1614,1,
,,0,,,Verdadero,Falso,j,A,incongruent_right,Paco dejó los pantalones que compró en la tienda en su cuarto cuando volvió,1,1,1,0,j,1,11,A Paco los pantalones se le quedaron en la tienda.,,,,,,,,,,,,,,,,,,,,,,,,,0,0,0,0,0,44,44,10,,,,,,,,,,,,,,,,0.465930938721,0.420341014862,0.465930938721,0.284893989563,0.21799993515,0.750824928284,,,,,,,,j,1,0.755821943283,0.250141143799,0.184386014938,1.00096607208,0.317817926407,0.255287885666,1.31878399849,0.33279299736,0.268657922745,1.65157699585,0.435818910599,0.372152090073,2.08739590645,j,1,2.44336891174,,2.00543308258,1.94335079193,4.09282898903,0.48489689827,0.406408071518,4.5777258873,0.451308012009,0.390753030777,5.02903389931,0.415627002716,0.352739810944,5.44466090202,1.12180399895,1.05704784393,6.56646490097,0.951867103577,0.874362230301,7.51833200455,0.284296035767,0.221511125565,7.80262804031,,,None,None,0.551717042923,0.488304853439,8.35434508324,,,,,,,,,,,,,,,,,,,,,,,,,1,1,4,59.31824320979797,Dissertation,2018_Jul_18_1614,1,
,,1,,,Verdadero,Falso,f,A,congruent_left,a,0,0,0,0,f,0,303,a,,,,,,,,,,,,,,,,,,,,,,,,,0,0,0,0,0,45,45,62,,,,,,,,,,,,,,,,,,,,,,,,,,,,,f,1,0.554421186447,,,,,,,,,,,,,None,0,,,,,,,,,,,,,,,,,,,,,,,,,,None,None,,,,,,,,,,,,,,,,,,,,,,,,,,,,1,1,4,59.31824320979797,Dissertation,2018_Jul_18_1614,1,
,,0,,,Verdadero,Falso,j,A,incongruent_left,El empleado guardó los archivos que recibió en una carpeta después de revisarlos,0,1,1,0,f,0,132,El empleado tiró los documentos.,,,,,,,,,,,,,,,,,,,,,,,,,0,0,0,0,0,46,46,25,,,,,,,,,,,,,,,,0.716131925583,0.669651031494,0.716131925583,0.200896978378,0.135941028595,0.917028903961,,,,,,,,f,1,0.673393011093,0.267434120178,0.201853990555,1.18446302414,0.467746019363,0.400016069412,1.6522090435,0.519069910049,0.453628063202,2.17127895355,0.585618019104,0.52206993103,2.75689697266,j,1,1.47110891342,,0.53497004509,0.472972869873,3.29186701775,0.567533969879,0.505234956741,3.85940098763,0.534464120865,0.452947854996,4.39386510849,0.636024951935,0.555603981018,5.02989006042,0.534018039703,0.471614837646,5.56390810013,0.518431901932,0.456257820129,6.08234000206,0.401144981384,0.33824300766,6.48348498344,,,None,None,,,,,,,,,,,,,,,,,,,,,,,,,,,,1,1,4,59.31824320979797,Dissertation,2018_Jul_18_1614,1,
,,0,,,Verdadero,Falso,f,A,single_right,Me reí cuando mi amiga me contó la historia de su encuentro con su ex.,0,0,0,1,j,0,220,La historia de mi amiga me dio gracia.,,,,,,,,,,,,,,,,,,,,,,,,,0,0,0,0,0,47,47,49,,,,,,,,,,,,,,,,0.616186141968,0.576092004776,0.616186141968,0.284297943115,0.218759059906,0.900484085083,,,,,,,,j,1,0.875797986984,0.769642114639,0.719295978546,1.67012619972,0.267332792282,0.220596075058,1.937458992,0.401167154312,0.33899307251,2.33862614632,0.402601957321,0.341812133789,2.74122810364,f,1,1.82519388199,,0.433661937714,0.373027086258,3.17489004135,0.768913984299,0.706124067307,3.94380402565,0.465270042419,0.401087999344,4.40907406807,1.03823399544,0.990428924561,5.44730806351,0.399662971497,0.336002826691,5.846971035,0.402740955353,0.338996887207,6.24971199036,0.466796159744,0.403613090515,6.7165081501,,,None,None,0.486088037491,0.422726154327,7.20259618759,0.432328939438,0.368457078934,7.63492512703,,,,,,,,,,,,,,,,,,,,,,1,1,4,59.31824320979797,Dissertation,2018_Jul_18_1614,1,
,,1,,,Verdadero,Falso,f,A,congruent_left,La profesora dejó la galleta que compró en el mercado en su cartera durante la clase,1,1,0,0,f,0,13,La galleta estaba en la cartera durante la clase.,,,,,,,,,,,,,,,,,,,,,,,,,0,0,0,0,0,48,48,12,,,,,,,,,,,,,,,,0.16640996933,0.0938079357147,0.16640996933,0.50163602829,0.439981937408,0.66804599762,,,,,,,,f,1,0.604079961777,0.198844194412,0.118350982666,0.866890192032,0.484003782272,0.417875051498,1.3508939743,0.336558103561,0.271049022675,1.68745207787,0.300597906113,0.220578193665,1.98804998398,f,1,1.95805287361,,0.418320178986,0.355617046356,2.40637016296,0.651247024536,0.58869600296,3.0576171875,0.384824991226,0.305496931076,3.44244217873,0.551558017731,0.489810943604,3.99400019646,0.616110801697,0.552035093307,4.61011099815,0.804160118103,0.740269899368,5.41427111626,0.416666030884,0.353910923004,5.83093714714,,,None,None,0.352607965469,0.288332939148,6.18354511261,0.433301925659,0.355304956436,6.61684703827,0.351104974747,0.288051128387,6.96795201302,,,,,,,,,,,,,,,,,,,1,1,4,59.31824320979797,Dissertation,2018_Jul_18_1614,1,
,,0,,,Verdadero,Falso,j,A,incongruent_left,Después de que limpiaron la casa brillaba por todas partes,1,1,1,0,f,1,2,Todavía tienen que limpiar la sala.,,,,,,,,,,,,,,,,,,,,,,,,,0,0,0,0,0,49,49,1,,,,,,,,,,,,,,,,0.413591861725,0.380883216858,0.413591861725,0.250934123993,0.187718153,0.664525985718,,,,,,,,f,1,0.769304990768,0.300803899765,0.250900030136,0.965329885483,0.300911903381,0.254917860031,1.26624178886,0.40145611763,0.339540958405,1.66769790649,0.350517034531,0.300956010818,2.01821494102,j,1,1.82560801506,,0.38466501236,0.323843955994,2.40287995338,0.466320991516,0.402323007584,2.8692009449,0.435564994812,0.388329982758,3.30476593971,0.384578943253,0.320786952972,3.68934488297,,,,,,,,,,,,None,None,,,,,,,,,,,,,,,,,,,,,,,,,,,,1,1,4,59.31824320979797,Dissertation,2018_Jul_18_1614,1,
,,0,,,Verdadero,Falso,j,A,single_right,Las flores en mi apartamento hacen que la sala brille,0,0,0,1,j,0,224,No tengo plantas en mi apartamento por mis alergias.,,,,,,,,,,,,,,,,,,,,,,,,,0,0,0,0,0,50,50,53,,,,,,,,,,,,,,,,0.419034957886,0.390256881714,0.419034957886,0.284098148346,0.219338178635,0.703133106232,,,,,,,,j,1,0.787734985352,0.367511987686,0.305641889572,1.07064509392,0.416076898575,0.350914955139,1.48672199249,0.402642965317,0.354725837708,1.88936495781,0.434974193573,0.38547706604,2.32433915138,j,1,4.6511528492,,0.349110841751,0.299991130829,2.67344999313,0.419001102448,0.372224092484,3.09245109558,0.317961931229,0.27138209343,3.41041302681,0.434900045395,0.388986110687,3.8453130722,,,,,,,,,,,,None,None,,,,,,,,,,,,,,,,,,,,,,,,,,,,1,1,4,59.31824320979797,Dissertation,2018_Jul_18_1614,1,
,,0,,,Verdadero,Falso,j,A,single_left,Ana vació el lavaplatos en la cocina,0,0,0,1,f,0,206,Ana no ayudó con los quehaceres.,,,,,,,,,,,,,,,,,,,,,,,,,0,0,0,0,0,51,51,35,,,,,,,,,,,,,,,,0.44982790947,0.422739028931,0.44982790947,0.234381914139,0.204867124557,0.684209823608,,,,,,,,f,1,0.637485027313,0.215823173523,0.167140960693,0.900032997131,0.33594083786,0.304515123367,1.23597383499,0.434900999069,0.389229059219,1.67087483406,0.399034023285,0.351689100266,2.06990885735,j,1,1.95945096016,,0.619925022125,0.571686983109,2.68983387947,,,,,,,,,,,,,,,,,,,,,None,None,,,,,,,,,,,,,,,,,,,,,,,,,,,,1,1,4,59.31824320979797,Dissertation,2018_Jul_18_1614,1,
,,0,,,Verdadero,Falso,f,A,incongruent_right,a,0,0,1,0,j,0,315,a,,,,,,,,,,,,,,,,,,,,,,,,,0,0,0,0,0,52,52,74,,,,,,,,,,,,,,,,,,,,,,,,,,,,,j,1,0.7230219841,,,,,,,,,,,,,None,0,,,,,,,,,,,,,,,,,,,,,,,,,,None,None,,,,,,,,,,,,,,,,,,,,,,,,,,,,1,1,4,59.31824320979797,Dissertation,2018_Jul_18_1614,1,
,,1,,,Verdadero,Falso,f,A,congruent_right,Siempre que la niña salta la cuerda le da por la cabeza,1,1,0,0,j,0,4,La niña se golpea cuando juega.,,,,,,,,,,,,,,,,,,,,,,,,,0,0,0,0,0,53,53,3,,,,,,,,,,,,,,,,0.416551113129,0.384016990662,0.416551113129,0.266311883926,0.218196153641,0.682862997055,,,,,,,,j,1,0.624323129654,0.286198139191,0.238415002823,0.969061136246,0.299937963486,0.254650831223,1.26899909973,0.399801015854,0.353826999664,1.66880011559,0.601485967636,0.536848068237,2.27028608322,f,1,2.1755399704,,0.269403934479,0.220585823059,2.5396900177,0.399186134338,0.353704929352,2.93887615204,0.335775852203,0.287874221802,3.27465200424,0.415499925613,0.35126209259,3.69015192986,0.303112030029,0.25560593605,3.99326395988,0.416277170181,0.369147062302,4.40954113007,,,,,,None,None,,,,,,,,,,,,,,,,,,,,,,,,,,,,1,1,4,59.31824320979797,Dissertation,2018_Jul_18_1614,1,
,,0,,,Verdadero,Falso,f,A,single_right,a,0,0,0,1,j,0,310,a,,,,,,,,,,,,,,,,,,,,,,,,,0,0,0,0,0,54,54,69,,,,,,,,,,,,,,,,,,,,,,,,,,,,,j,1,0.708917856216,,,,,,,,,,,,,None,0,,,,,,,,,,,,,,,,,,,,,,,,,,None,None,,,,,,,,,,,,,,,,,,,,,,,,,,,,1,1,4,59.31824320979797,Dissertation,2018_Jul_18_1614,1,
,,1,,,Verdadero,Falso,j,A,congruent_left,La familia tenía una mesa antigua en el porche de su casa,0,0,0,0,f,0,201,La mesa antigua está en el comedor.,,,,,,,,,,,,,,,,,,,,,,,,,0,0,0,0,0,55,55,30,,,,,,,,,,,,,,,,0.483854055405,0.450487136841,0.483854055405,0.233448982239,0.186224937439,0.717303037643,,,,,,,,f,1,0.538923978806,0.417956113815,0.374073982239,1.13525915146,0.316145896912,0.253315925598,1.45140504837,0.452172994614,0.403605937958,1.90357804298,0.401688098907,0.356884002686,2.30526614189,j,1,2.74490785599,,0.451664924622,0.405256986618,2.75693106651,0.500919103622,0.439014911652,3.25785017014,0.518172979355,0.471827030182,3.77602314949,0.468854904175,0.407842874527,4.24487805367,0.365482091904,0.28623008728,4.61036014557,0.584981918335,0.519548177719,5.1953420639,,,,,,None,None,,,,,,,,,,,,,,,,,,,,,,,,,,,,1,1,4,59.31824320979797,Dissertation,2018_Jul_18_1614,1,
,,0,,,Verdadero,Falso,f,A,single_right,a,0,0,0,1,j,0,306,a,,,,,,,,,,,,,,,,,,,,,,,,,0,0,0,0,0,56,56,65,,,,,,,,,,,,,,,,,,,,,,,,,,,,,j,1,0.572442054749,,,,,,,,,,,,,None,0,,,,,,,,,,,,,,,,,,,,,,,,,,None,None,,,,,,,,,,,,,,,,,,,,,,,,,,,,1,1,4,59.31824320979797,Dissertation,2018_Jul_18_1614,1,
,,0,,,Verdadero,Falso,f,A,incongruent_right,Después de que llegué el maratón empezó inmediatamente,0,1,1,0,j,0,121,Llegué para ver el inicio de la carrera.,,,,,,,,,,,,,,,,,,,,,,,,,0,0,0,0,0,57,57,20,,,,,,,,,,,,,,,,0.533849000931,0.473335027695,0.533849000931,0.267780065536,0.207226037979,0.801629066467,,,,,,,,j,1,0.607417106628,0.366811037064,0.305546998978,1.16844010353,0.367709875107,0.321905851364,1.53614997864,0.468538999557,0.406698942184,2.0046889782,0.350305080414,0.28932595253,2.35499405861,f,1,2.51054310799,,0.466732025146,0.420112133026,2.82172608376,0.452847957611,0.405541181564,3.27457404137,,,,,,,,,,,,,,,,,,None,None,,,,,,,,,,,,,,,,,,,,,,,,,,,,1,1,4,59.31824320979797,Dissertation,2018_Jul_18_1614,1,
,,0,,,Verdadero,Falso,j,A,incongruent_left,Los chicos acomodaron la manta que sus padres les dejaron dentro del clóset antes de dormir,0,1,1,0,f,0,136,Los chicos no usaron la manta.,,,,,,,,,,,,,,,,,,,,,,,,,0,0,0,0,0,58,58,27,,,,,,,,,,,,,,,,0.517370939255,0.464329004288,0.517370939255,0.415499210358,0.351993083954,0.932870149612,,,,,,,,f,1,0.655634880066,0.234848976135,0.169892787933,1.16771912575,0.417984008789,0.355096101761,1.58570313454,0.485285997391,0.422538995743,2.07098913193,0.398975849152,0.332830905914,2.46996498108,j,1,1.84198284149,,0.403877019882,0.338436841965,2.87384200096,0.467263936996,0.389188051224,3.34110593796,0.485295057297,0.423814058304,3.82640099525,0.584138154984,0.522209882736,4.41053915024,0.53298997879,0.449487924576,4.94352912903,1.02019190788,0.953387022018,5.96372103691,0.435172080994,0.367465019226,6.3988931179,,,None,None,0.551954984665,0.471405029297,6.95084810257,0.384706020355,0.321989059448,7.33555412292,0.383276939392,0.321553945541,7.71883106232,,,,,,,,,,,,,,,,,,,1,1,4,59.31824320979797,Dissertation,2018_Jul_18_1614,1,
,,1,,,Verdadero,Falso,f,A,congruent_left,Cuando la chica lava los platos se quedan bien sucios,1,1,0,0,f,0,9,La chica lava sin cuidado.,,,,,,,,,,,,,,,,,,,,,,,,,0,0,0,0,0,59,59,8,,,,,,,,,,,,,,,,0.73347401619,0.699679136276,0.73347401619,0.518080949783,0.469483137131,1.25155496597,,,,,,,,f,1,1.55519390106,0.436777114868,0.385658025742,1.68833208084,0.451112985611,0.406134128571,2.13944506645,0.467330932617,0.406455993652,2.60677599907,0.466381072998,0.402464866638,3.07315707207,f,1,1.84346723557,,0.469486951828,0.405636072159,3.5426440239,0.449697971344,0.384570121765,3.99234199524,0.535726070404,0.487841844559,4.52806806564,0.485749006271,0.43709397316,5.01381707191,,,,,,,,,,,,None,None,,,,,,,,,,,,,,,,,,,,,,,,,,,,1,1,4,59.31824320979797,Dissertation,2018_Jul_18_1614,1,
,,0,,,Verdadero,Falso,f,A,single_right,a,0,0,0,1,j,0,302,a,,,,,,,,,,,,,,,,,,,,,,,,,0,0,0,0,0,60,60,61,,,,,,,,,,,,,,,,,,,,,,,,,,,,,j,1,0.655761003494,,,,,,,,,,,,,None,0,,,,,,,,,,,,,,,,,,,,,,,,,,None,None,,,,,,,,,,,,,,,,,,,,,,,,,,,,1,1,4,59.31824320979797,Dissertation,2018_Jul_18_1614,1,
,,1,,,Verdadero,Falso,f,A,congruent_left,Jimena duerme bien en la cama en su cuarto,0,0,0,0,f,0,205,La cama de Jimena es cómoda.,,,,,,,,,,,,,,,,,,,,,,,,,0,0,0,0,0,61,61,34,,,,,,,,,,,,,,,,0.467833995819,0.437247037888,0.467833995819,0.367597103119,0.321536064148,0.835431098938,,,,,,,,f,1,0.538691997528,0.383234977722,0.33682012558,1.21866607666,0.485085964203,0.437159061432,1.70375204086,0.417480945587,0.370459079742,2.12123298645,0.46905708313,0.422726869583,2.59029006958,f,1,2.24280810356,,0.417999982834,0.373353004456,3.00829005241,0.367401123047,0.318823099136,3.37569117546,0.518248796463,0.457326889038,3.89393997192,,,,,,,,,,,,,,,None,None,,,,,,,,,,,,,,,,,,,,,,,,,,,,1,1,4,59.31824320979797,Dissertation,2018_Jul_18_1614,1,
,,0,,,Verdadero,Falso,f,A,single_left,a,0,0,0,1,f,0,314,a,,,,,,,,,,,,,,,,,,,,,,,,,0,0,0,0,0,62,62,73,,,,,,,,,,,,,,,,,,,,,,,,,,,,,f,1,0.670549869537,,,,,,,,,,,,,None,0,,,,,,,,,,,,,,,,,,,,,,,,,,None,None,,,,,,,,,,,,,,,,,,,,,,,,,,,,1,1,4,59.31824320979797,Dissertation,2018_Jul_18_1614,1,
,,0,,,Verdadero,Falso,j,A,single_right,Cuando usó mi carro Jorge lo aparcó muy mal,0,0,0,1,j,0,212,No le presto mi carro a nadie.,,,,,,,,,,,,,,,,,,,,,,,,,0,0,0,0,0,63,63,41,,,,,,,,,,,,,,,,0.500816106796,0.473259210587,0.500816106796,0.383379936218,0.338706016541,0.884196043015,,,,,,,,j,1,0.55540895462,0.533763170242,0.485141038895,1.41795921326,0.519302845001,0.472701787949,1.93726205826,0.553037166595,0.504832983017,2.49029922485,0.415163993835,0.369432210922,2.90546321869,j,1,2.67649793625,,0.451462984085,0.401973962784,3.35692620277,0.517211914062,0.469485044479,3.87413811684,0.484701871872,0.434859991074,4.35883998871,,,,,,,,,,,,,,,None,None,,,,,,,,,,,,,,,,,,,,,,,,,,,,1,1,4,59.31824320979797,Dissertation,2018_Jul_18_1614,1,
,,0,,,Verdadero,Falso,f,A,incongruent_left,a,0,0,1,0,f,0,313,a,,,,,,,,,,,,,,,,,,,,,,,,,0,0,0,0,0,64,64,72,,,,,,,,,,,,,,,,,,,,,,,,,,,,,f,1,0.590901851654,,,,,,,,,,,,,None,0,,,,,,,,,,,,,,,,,,,,,,,,,,None,None,,,,,,,,,,,,,,,,,,,,,,,,,,,,1,1,4,59.31824320979797,Dissertation,2018_Jul_18_1614,1,
,,0,,,Verdadero,Falso,j,A,incongruent_left,Los alumnos metieron la prueba que la maestra les dio en sus bolsas antes de irse,0,1,1,0,f,0,140,La maestra se quedó con las pruebas.,,,,,,,,,,,,,,,,,,,,,,,,,0,0,0,0,0,65,65,29,,,,,,,,,,,,,,,,0.568938016891,0.526549100876,0.568938016891,0.317585945129,0.251373052597,0.886523962021,,,,,,,,f,1,0.585711956024,0.501350164413,0.439736127853,1.38787412643,0.634618997574,0.573415994644,2.02249312401,0.418726921082,0.35947394371,2.44122004509,0.4513630867,0.372035980225,2.89258313179,j,1,1.67600607872,,0.400009870529,0.339305877686,3.29259300232,0.502087116241,0.440592050552,3.79468011856,0.534933805466,0.473031044006,4.32961392403,0.434163093567,0.372164964676,4.76377701759,0.651802062988,0.589607954025,5.41557908058,0.349665880203,0.269208908081,5.76524496078,0.467766046524,0.403945207596,6.23301100731,,,None,None,0.419843912125,0.355744123459,6.65285491943,0.450884103775,0.373565196991,7.10373902321,0.398926973343,0.319132089615,7.50266599655,,,,,,,,,,,,,,,,,,,1,1,4,59.31824320979797,Dissertation,2018_Jul_18_1614,1,
,,1,,,Verdadero,Falso,f,A,congruent_right,El reloj de mi mamá tiene diamantes pero le queda muy bien,0,0,0,0,j,0,223,Mi madre tiene un reloj bonito.,,,,,,,,,,,,,,,,,,,,,,,,,0,0,0,0,0,66,66,52,,,,,,,,,,,,,,,,0.0362930297852,0.00236415863037,0.0362930297852,0.580809831619,0.536718845367,0.617102861404,,,,,,,,j,1,0.752540111542,0.434853076935,0.389340877533,1.05195593834,0.432664871216,0.368275880814,1.48462080956,0.501660108566,0.43594288826,1.98628091812,0.419378042221,0.372945070267,2.40565896034,f,1,1.74046707153,,0.451436042786,0.390208005905,2.85709500313,0.518147945404,0.455545186996,3.37524294853,0.399092912674,0.352890968323,3.77433586121,0.434103012085,0.384676933289,4.20843887329,0.485692977905,0.419656038284,4.6941318512,0.452464103699,0.387961864471,5.1465959549,,,,,,None,None,,,,,,,,,,,,,,,,,,,,,,,,,,,,1,1,4,59.31824320979797,Dissertation,2018_Jul_18_1614,1,
,,0,,,Verdadero,Falso,f,A,single_left,a,0,0,0,1,f,0,301,a,,,,,,,,,,,,,,,,,,,,,,,,,0,0,0,0,0,67,67,60,,,,,,,,,,,,,,,,,,,,,,,,,,,,,f,1,0.722577095032,,,,,,,,,,,,,None,0,,,,,,,,,,,,,,,,,,,,,,,,,,None,None,,,,,,,,,,,,,,,,,,,,,,,,,,,,1,1,4,59.31824320979797,Dissertation,2018_Jul_18_1614,1,
,,0,,,Verdadero,Falso,j,A,incongruent_right,Después de lavar la ropa Antonio prepara la cena,0,0,1,0,j,0,215,Antonio hace varios deberes por la noche.,,,,,,,,,,,,,,,,,,,,,,,,,0,0,0,0,0,68,68,44,,,,,,,,,,,,,,,,0.0372722148895,0.00253391265869,0.0372722148895,0.631081819534,0.586920022964,0.668354034424,,,,,,,,j,1,0.657148838043,0.434049129486,0.388346910477,1.10240316391,0.501840829849,0.455078125,1.60424399376,0.485272169113,0.439758062363,2.08951616287,0.467360019684,0.421596050262,2.55687618256,f,0,6.9422390461,,0.432651042938,0.384405851364,2.98952722549,0.452168941498,0.401846885681,3.44169616699,0.419620037079,0.368818044662,3.86131620407,,,,,,,,,,,,,,,None,None,,,,,,,,,,,,,,,,,,,,,,,,,,,,1,1,4,59.31824320979797,Dissertation,2018_Jul_18_1614,1,
,,0,,,Verdadero,Falso,f,A,single_left,a,0,0,0,1,f,0,309,a,,,,,,,,,,,,,,,,,,,,,,,,,0,0,0,0,0,69,69,68,,,,,,,,,,,,,,,,,,,,,,,,,,,,,f,1,0.58721113205,,,,,,,,,,,,,None,0,,,,,,,,,,,,,,,,,,,,,,,,,,None,None,,,,,,,,,,,,,,,,,,,,,,,,,,,,1,1,4,59.31824320979797,Dissertation,2018_Jul_18_1614,1,
,,1,,,Verdadero,Falso,f,A,congruent_left,El mesero vació el vino que los clientes dejaron en la mesa en el fregadero después de que se fueron,1,1,0,0,f,0,17,Los clientes se fueron sin tomar todo el vino. ,,,,,,,,,,,,,,,,,,,,,,,,,0,0,0,0,0,70,70,16,,,,,,,,,,,,,,,,0.599529981613,0.540775060654,0.599529981613,0.269278049469,0.186748027802,0.868808031082,,,,,,,,f,1,0.524197101593,0.314720153809,0.233434915543,1.18352818489,0.570510864258,0.505289077759,1.75403904915,0.867717981339,0.790483951569,2.62175703049,0.534142017365,0.452636957169,3.15589904785,j,0,3.79497909546,,0.386678934097,0.32216501236,3.54257798195,0.468059062958,0.370584011078,4.01063704491,0.467200040817,0.389526128769,4.47783708572,0.416620016098,0.3354408741,4.89445710182,0.586468935013,0.518872022629,5.48092603683,0.467950105667,0.405881166458,5.9488761425,0.534705877304,0.452068090439,6.48358201981,,,None,None,1.23742818832,1.15835809708,7.72101020813,0.632719993591,0.550394058228,8.35373020172,0.419485807419,0.355235099792,8.77321600914,0.450622081757,0.372973918915,9.2238380909,0.451698064804,0.371726036072,9.6755361557,0.518349885941,0.438533067703,10.1938860416,0.600362062454,0.51676607132,10.7942481041,,,,,,,1,1,4,59.31824320979797,Dissertation,2018_Jul_18_1614,1,
,,0,,,Verdadero,Falso,f,A,single_left,El mecánico estará de vacaciones solo unos días,0,0,0,1,f,0,230,El mecánico viaja solo.,,,,,,,,,,,,,,,,,,,,,,,,,0,0,0,0,0,71,71,59,,,,,,,,,,,,,,,,0.617644071579,0.58876490593,0.617644071579,0.316754817963,0.251259088516,0.934398889542,,,,,,,,f,1,0.488594055176,0.451659202576,0.406602144241,1.38605809212,0.333577871323,0.288021087646,1.71963596344,0.401947975159,0.356642007828,2.1215839386,0.535151004791,0.486620903015,2.65673494339,f,1,3.46431088448,,0.417232990265,0.36959195137,3.07396793365,0.399995088577,0.354236841202,3.47396302223,,,,,,,,,,,,,,,,,,None,None,,,,,,,,,,,,,,,,,,,,,,,,,,,,1,1,4,59.31824320979797,Dissertation,2018_Jul_18_1614,1,
,,1,,,Verdadero,Falso,f,A,congruent_left,a,0,0,0,0,f,0,311,a,,,,,,,,,,,,,,,,,,,,,,,,,0,0,0,0,0,72,72,70,,,,,,,,,,,,,,,,,,,,,,,,,,,,,None,0,,,,,,,,,,,,,,None,0,,,,,,,,,,,,,,,,,,,,,,,,,,None,None,,,,,,,,,,,,,,,,,,,,,,,,,,,,1,1,4,59.31824320979797,Dissertation,2018_Jul_18_1614,1,
,,1,,,Verdadero,Falso,j,A,congruent_right,Jorge puso las monedas que traía en su abrigo en la mesa cuando regresó a su casa,1,1,0,0,j,0,12,Las monedas de Jorge están en su abrigo.,,,,,,,,,,,,,,,,,,,,,,,,,0,0,0,0,0,73,73,11,,,,,,,,,,,,,,,,0.452066898346,0.409240007401,0.452066898346,0.2679271698,0.188220024109,0.719994068146,,,,,,,,j,1,0.552845954895,0.451856851578,0.390451908112,1.17185091972,0.283159017563,0.21898317337,1.45500993729,0.501738071442,0.418030023575,1.95674800873,0.400807857513,0.321825027466,2.35755586624,j,1,2.25690102577,,0.399831056595,0.335186004639,2.75738692284,0.452510118484,0.388159036636,3.20989704132,0.400699853897,0.321301937103,3.61059689522,0.552571058273,0.489147186279,4.16316795349,0.365863084793,0.30216884613,4.52903103828,0.435446977615,0.367774963379,4.9644780159,0.367929935455,0.2863509655,5.33240795135,,,None,None,0.334620952606,0.271265983582,5.66702890396,0.534654140472,0.470146894455,6.20168304443,0.266662836075,0.201925992966,6.46834588051,2.30571818352,2.24254012108,8.77406406403,,,,,,,,,,,,,,,,1,1,4,59.31824320979797,Dissertation,2018_Jul_18_1614,1,
,,1,,,Verdadero,Falso,f,A,congruent_right,Cuando mi madre lavaba la ropa quedaba muy limpia,1,1,0,0,j,0,8,Mi madre me ayuda con el lavado de ropa.,,,,,,,,,,,,,,,,,,,,,,,,,0,0,0,0,0,74,74,7,,,,,,,,,,,,,,,,0.466257095337,0.426707029343,0.466257095337,0.249903917313,0.203264951706,0.71616101265,,,,,,,,j,1,0.739562034607,0.268877029419,0.221944093704,0.985038042068,0.284162998199,0.225036144257,1.26920104027,0.351232051849,0.306489944458,1.62043309212,0.367739915848,0.322250127792,1.98817300797,j,0,4.49464893341,,0.423755168915,0.363446950912,2.41192817688,0.376128911972,0.317698955536,2.78805708885,0.887275934219,0.837025165558,3.67533302307,,,,,,,,,,,,,,,None,None,,,,,,,,,,,,,,,,,,,,,,,,,,,,1,1,4,59.31824320979797,Dissertation,2018_Jul_18_1614,1,
,,1,,,Verdadero,Falso,j,B,congruent_right,Después de que la arquitecta empezó los planos se volvieron más sencillos,1,1,0,0,j,0,22,Los planos siempre fueron muy sencillos.,,,,,,,,,,,,,,,,,,,,,,,,,1,0,1,0,0,0,0,1,,,,,,,,,,,,,,,,0.467702865601,0.417948961258,0.467702865601,0.335402011871,0.274012088776,0.803104877472,,,,,,,,j,1,0.537949085236,0.350013971329,0.287400960922,1.1531188488,0.435279130936,0.373278141022,1.58839797974,0.432861089706,0.368537187576,2.02125906944,0.435815811157,0.372441053391,2.4570748806,j,1,1.82393217087,,1.22029018402,1.14271783829,3.67736506462,0.550944805145,0.489685058594,4.22830986977,0.550366163254,0.488069057465,4.77867603302,0.467741966248,0.4028840065,5.24641799927,0.550920963287,0.484775066376,5.79733896255,0.47039604187,0.422137975693,6.26773500443,,,,,,None,None,,,,,,,,,,,,,,,,,,,,,,,,,,space,335.559649944,1,1,4,59.31824320979797,Dissertation,2018_Jul_18_1614,1,
,,0,,,Verdadero,Falso,f,B,single_left,Mi celular se me rompió cuando se me cayó al piso,0,0,0,1,f,0,252,Mi celular ya está roto.,,,,,,,,,,,,,,,,,,,,,,,,,1,0,1,0,0,1,1,51,,,,,,,,,,,,,,,,0.433828115463,0.403841018677,0.433828115463,0.449449777603,0.385411977768,0.883277893066,,,,,,,,f,1,0.568649053574,0.468560218811,0.418693780899,1.35183811188,0.351460933685,0.304345846176,1.70329904556,0.467314958572,0.420212984085,2.17061400414,0.402095079422,0.356667995453,2.57270908356,f,1,5.38611698151,,0.385017871857,0.336917161942,2.95772695541,0.415512084961,0.368340969086,3.37323904037,0.367759943008,0.317595005035,3.74099898338,0.401479005814,0.336888074875,4.1424779892,0.368812084198,0.32088303566,4.51129007339,,,,,,,,,None,None,,,,,,,,,,,,,,,,,,,,,,,,,,,,1,1,4,59.31824320979797,Dissertation,2018_Jul_18_1614,1,
,,0,,,Verdadero,Falso,j,B,incongruent_left,Los estudiantes metieron la tarea que la maestra les dio en la clase en sus bolsas antes de irse,1,1,1,0,f,1,40,La maestra se quedó con la tarea de los alumnos.,,,,,,,,,,,,,,,,,,,,,,,,,1,0,1,0,0,2,2,19,,,,,,,,,,,,,,,,0.433346033096,0.380058050156,0.433346033096,0.232808113098,0.166481971741,0.666154146194,,,,,,,,f,1,0.670012950897,0.251224994659,0.186260938644,0.917379140854,0.368804931641,0.301839828491,1.28618407249,0.484195947647,0.421584844589,1.77038002014,0.399158000946,0.317940950394,2.16953802109,j,1,2.82974004745,,0.352562189102,0.28812789917,2.52210021019,0.432627916336,0.351186037064,2.95472812653,0.270222902298,0.205110788345,3.22495102882,0.366438150406,0.284793138504,3.59138917923,0.267848968506,0.189528226852,3.85923814774,0.350970029831,0.272339105606,4.21020817757,0.401254892349,0.335279941559,4.61146306992,,,None,None,0.331804990768,0.251443147659,4.94326806068,0.420330047607,0.356023073196,5.36359810829,0.466317892075,0.386336088181,5.82991600037,0.3855240345,0.304656982422,6.21544003487,0.416045188904,0.352741956711,6.63148522377,0.552395820618,0.469043016434,7.18388104439,,,,,,,,,,1,1,4,59.31824320979797,Dissertation,2018_Jul_18_1614,1,
,,1,,,Verdadero,Falso,f,A,congruent_left,a,0,0,0,0,f,0,307,a,,,,,,,,,,,,,,,,,,,,,,,,,1,0,1,0,0,3,3,66,,,,,,,,,,,,,,,,,,,,,,,,,,,,,f,1,0.539416074753,,,,,,,,,,,,,None,0,,,,,,,,,,,,,,,,,,,,,,,,,,None,None,,,,,,,,,,,,,,,,,,,,,,,,,,,,1,1,4,59.31824320979797,Dissertation,2018_Jul_18_1614,1,
,,0,,,Verdadero,Falso,f,B,incongruent_right,El chico toca el violín raro,0,0,1,0,j,0,257,El chico no sabe tocar bien.,,,,,,,,,,,,,,,,,,,,,,,,,1,0,1,0,0,4,4,56,,,,,,,,,,,,,,,,0.415871858597,0.395100831985,0.415871858597,0.232846975327,0.200824975967,0.648718833923,,,,,,,,j,1,0.573122024536,0.251222133636,0.218399047852,0.89994096756,0.233783960342,0.201641082764,1.1337249279,0.353209972382,0.318485021591,1.48693490028,0.35062789917,0.32178902626,1.83756279945,f,1,2.49457502365,,,,,,,,,,,,,,,,,,,,,,,,,None,None,,,,,,,,,,,,,,,,,,,,,,,,,,,,1,1,4,59.31824320979797,Dissertation,2018_Jul_18_1614,1,
,,0,,,Verdadero,Falso,f,B,single_right,Cuando los amigos tienen una fiesta todos toman vino o cerveza,0,0,0,1,j,0,242,Mis amigos no toman whisky en las fiestas.,,,,,,,,,,,,,,,,,,,,,,,,,1,0,1,0,0,5,5,41,,,,,,,,,,,,,,,,0.416622877121,0.380309820175,0.416622877121,0.217247009277,0.17123913765,0.633869886398,,,,,,,,None,0,,0.248834133148,0.184942960739,0.882704019547,0.268024921417,0.220235109329,1.15072894096,0.3515188694,0.287550926208,1.50224781036,0.383381128311,0.31852889061,1.88562893867,j,0,7.83840703964,,0.319483041763,0.272529840469,2.20511198044,0.325918912888,0.266844987869,2.53103089333,0.358200073242,0.304693937302,2.88923096657,0.318635940552,0.273843050003,3.20786690712,0.398773908615,0.332576990128,3.60664081573,,,,,,,,,None,None,,,,,,,,,,,,,,,,,,,,,,,,,,,,1,1,4,59.31824320979797,Dissertation,2018_Jul_18_1614,1,
,,0,,,Verdadero,Falso,j,B,incongruent_right,El grupo musical que tocó en el salón de conciertos era muy bueno,0,0,1,0,j,0,233,El grupo no tocaba bien.,,,,,,,,,,,,,,,,,,,,,,,,,1,0,1,0,0,6,6,32,,,,,,,,,,,,,,,,0.433008909225,0.388068199158,0.433008909225,0.232748985291,0.167637109756,0.665757894516,,,,,,,,j,1,0.587479114532,0.235742092133,0.189352989197,0.901499986649,0.315635919571,0.253350019455,1.21713590622,0.335850954056,0.287561893463,1.55298686028,0.383028030396,0.320602178574,1.93601489067,j,1,2.56091284752,,0.335983991623,0.271620035172,2.27199888229,0.350285053253,0.288084030151,2.62228393555,0.4014980793,0.338603973389,3.02378201485,0.350766897202,0.271789073944,3.37454891205,0.467983007431,0.405417919159,3.84253191948,0.349453926086,0.287297964096,4.19198584557,0.484908103943,0.43608880043,4.67689394951,,,None,None,,,,,,,,,,,,,,,,,,,,,,,,,,,,1,1,4,59.31824320979797,Dissertation,2018_Jul_18_1614,1,
,,0,,,Verdadero,Falso,f,B,incongruent_left,Cuando la participante adivinó la respuesta apareció en la pantalla,1,1,1,0,f,1,28,La participante está en un concurso.,,,,,,,,,,,,,,,,,,,,,,,,,1,0,1,0,0,7,7,7,,,,,,,,,,,,,,,,0.430546045303,0.378957986832,0.430546045303,0.217174053192,0.1557970047,0.647720098495,,,,,,,,f,1,0.66958117485,0.200418949127,0.138421058655,0.848139047623,0.317491054535,0.254414796829,1.16563010216,0.633841991425,0.569175004959,1.79947209358,0.452394962311,0.39047908783,2.25186705589,f,1,3.94530797005,,0.384817123413,0.322469949722,2.63668417931,0.484743833542,0.418184041977,3.12142801285,0.399348974228,0.336300134659,3.52077698708,0.468913078308,0.401457071304,3.98969006538,,,,,,,,,,,,None,None,,,,,,,,,,,,,,,,,,,,,,,,,,,,1,1,4,59.31824320979797,Dissertation,2018_Jul_18_1614,1,
,,0,,,Verdadero,Falso,j,B,incongruent_right,Toni dejó los zapatos que compró en su cuarto cuando volvió,0,1,1,0,j,0,111,Toni solo compró pantalones.,,,,,,,,,,,,,,,,,,,,,,,,,1,0,1,0,0,8,8,25,,,,,,,,,,,,,,,,0.199340820312,0.159049034119,0.199340820312,0.350157976151,0.287670850754,0.549498796463,,,,,,,,j,1,0.607866048813,0.185344219208,0.138141155243,0.734843015671,0.315654993057,0.252303123474,1.05049800873,0.436918020248,0.389910936356,1.48741602898,0.700097799301,0.638992071152,2.18751382828,j,1,3.34472489357,,0.652606010437,0.604983091354,2.84011983871,0.417775154114,0.356136798859,3.25789499283,0.334066867828,0.273245811462,3.59196186066,0.365503072739,0.317978858948,3.9574649334,0.318026065826,0.26958990097,4.27549099922,,,,,,,,,None,None,,,,,,,,,,,,,,,,,,,,,,,,,,,,1,1,4,59.31824320979797,Dissertation,2018_Jul_18_1614,1,
,,0,,,Verdadero,Falso,j,B,incongruent_left,Después de que salieron la casa se quedó muy limpia,0,1,1,0,f,0,102,Todavía deben limpiar la casa.,,,,,,,,,,,,,,,,,,,,,,,,,1,0,1,0,0,9,9,20,,,,,,,,,,,,,,,,0.066694021225,0.0364520549774,0.066694021225,0.400495052338,0.337022066116,0.467189073563,,,,,,,,f,1,0.95667219162,0.250226020813,0.204370975494,0.717415094376,0.301241874695,0.255434989929,1.01865696907,0.433542013168,0.387323141098,1.45219898224,0.43554019928,0.388074874878,1.88773918152,j,1,2.07662701607,,0.349344968796,0.285663127899,2.23708415031,0.451463937759,0.39936208725,2.68854808807,0.385632038116,0.337316989899,3.07418012619,0.366025924683,0.317437887192,3.44020605087,,,,,,,,,,,,None,None,,,,,,,,,,,,,,,,,,,,,,,,,,,,1,1,4,59.31824320979797,Dissertation,2018_Jul_18_1614,1,
,,0,,,Verdadero,Falso,j,B,single_left,Siempre que da un concierto la artista canta sus canciones más conocidas,0,0,0,1,f,0,240,La artista siempre canta sus canciones recien salidas.,,,,,,,,,,,,,,,,,,,,,,,,,1,0,1,0,0,10,10,39,,,,,,,,,,,,,,,,0.4486348629,0.40410399437,0.4486348629,0.233934164047,0.167361021042,0.682569026947,,,,,,,,f,1,0.61940908432,0.335899829865,0.270891189575,1.01846885681,0.367908000946,0.305117845535,1.38637685776,0.417946100235,0.353862047195,1.80432295799,0.43234205246,0.366412162781,2.23666501045,j,1,2.713285923,,0.352651834488,0.301898002625,2.58931684494,0.434650182724,0.372225046158,3.02396702766,0.28400182724,0.221143960953,3.3079688549,0.415966033936,0.351036071777,3.72393488884,0.352306127548,0.288400888443,4.07624101639,0.301707983017,0.237883806229,4.3779489994,,,,,,None,None,,,,,,,,,,,,,,,,,,,,,,,,,,,,1,1,4,59.31824320979797,Dissertation,2018_Jul_18_1614,1,
,,1,,,Verdadero,Falso,j,B,congruent_left,No aceptaron a las mujeres en el club por sus prejuicios,0,0,0,0,f,0,259,Las mujeres tenían muchos prejuicios.,,,,,,,,,,,,,,,,,,,,,,,,,1,0,1,0,0,11,11,58,,,,,,,,,,,,,,,,0.132613897324,0.095901966095,0.132613897324,0.384054899216,0.338824033737,0.516668796539,,,,,,,,f,1,0.407346963882,0.250752210617,0.189253807068,0.767421007156,0.384663820267,0.323203086853,1.15208482742,0.333969116211,0.270852088928,1.48605394363,0.384551048279,0.335959911346,1.87060499191,j,1,3.81503915787,,0.301335811615,0.255598068237,2.17194080353,0.415899991989,0.368840932846,2.58784079552,0.501069068909,0.452293872833,3.08890986443,0.368670940399,0.316920995712,3.45758080482,0.485737085342,0.435416936874,3.94331789017,,,,,,,,,None,None,,,,,,,,,,,,,,,,,,,,,,,,,,,,1,1,4,59.31824320979797,Dissertation,2018_Jul_18_1614,1,
,,0,,,Verdadero,Falso,f,A,incongruent_right,a,0,0,1,0,j,0,315,a,,,,,,,,,,,,,,,,,,,,,,,,,1,0,1,0,0,12,12,74,,,,,,,,,,,,,,,,,,,,,,,,,,,,,j,1,0.641113042831,,,,,,,,,,,,,None,0,,,,,,,,,,,,,,,,,,,,,,,,,,None,None,,,,,,,,,,,,,,,,,,,,,,,,,,,,1,1,4,59.31824320979797,Dissertation,2018_Jul_18_1614,1,
,,0,,,Verdadero,Falso,j,B,incongruent_right,Mientras el maestro tocaba el violín resonaba por todo el salón,1,1,1,0,j,1,25,El maestro tocaba el piano.,,,,,,,,,,,,,,,,,,,,,,,,,1,0,1,0,0,13,13,4,,,,,,,,,,,,,,,,0.132961034775,0.0987539291382,0.132961034775,0.417578935623,0.356877088547,0.550539970398,,,,,,,,f,0,0.389010906219,0.234027862549,0.171149015427,0.784567832947,0.334380149841,0.267578125,1.11894798279,0.332540035248,0.267299890518,1.45148801804,0.484588861465,0.43492603302,1.9360768795,j,1,3.16014504433,,0.435506105423,0.387965917587,2.37158298492,0.401401996613,0.339524030685,2.77298498154,0.367286920547,0.303357124329,3.14027190208,0.735881090164,0.672684907913,3.87615299225,1.18622684479,1.12242794037,5.06237983704,,,,,,,,,None,None,,,,,,,,,,,,,,,,,,,,,,,,,,,,1,1,4,59.31824320979797,Dissertation,2018_Jul_18_1614,1,
,,1,,,Verdadero,Falso,j,B,congruent_right,Cuando mi hermana maneja el carro mi papá camina a la oficina,0,0,0,0,j,0,237,Mi hermana tiene su propio carro.,,,,,,,,,,,,,,,,,,,,,,,,,1,0,1,0,0,14,14,36,,,,,,,,,,,,,,,,0.550575971603,0.515245914459,0.550575971603,0.250030994415,0.20417881012,0.800606966019,,,,,,,,j,1,1.10879898071,0.318676948547,0.271910905838,1.11928391457,0.365386009216,0.299821853638,1.48466992378,0.285804033279,0.237394094467,1.77047395706,0.384181022644,0.338594913483,2.15465497971,j,1,5.487169981,,0.368086099625,0.306089162827,2.52274107933,0.501070976257,0.455826997757,3.02381205559,0.300271987915,0.253566980362,3.3240840435,0.317885875702,0.255901098251,3.6419699192,0.333420038223,0.254058122635,3.97538995743,0.385473012924,0.338165998459,4.36086297035,,,,,,None,None,,,,,,,,,,,,,,,,,,,,,,,,,,,,1,1,4,59.31824320979797,Dissertation,2018_Jul_18_1614,1,
,,0,,,Verdadero,Falso,f,B,single_left,"En la oficina había dos empleados, un periodista y un fotógrafo ",0,0,0,1,f,0,256,Había cuatro personas en la oficina.,,,,,,,,,,,,,,,,,,,,,,,,,1,0,1,0,0,15,15,55,,,,,,,,,,,,,,,,0.166487932205,0.127594947815,0.166487932205,0.349895000458,0.28593993187,0.516382932663,,,,,,,,f,1,0.724802017212,0.18497800827,0.139430046082,0.701360940933,0.250002145767,0.187644958496,0.9513630867,0.3012778759,0.219417095184,1.2526409626,0.250143051147,0.188729047775,1.50278401375,j,0,7.40688180923,,0.267498016357,0.205836772919,1.77028203011,0.601922035217,0.53926897049,2.37220406532,0.701640844345,0.635396003723,3.07384490967,0.351610183716,0.305883169174,3.42545509338,0.382203817368,0.316484928131,3.80765891075,,,,,,,,,None,None,,,,,,,,,,,,,,,,,,,,,,,,,,,,1,1,4,59.31824320979797,Dissertation,2018_Jul_18_1614,1,
,,0,,,Verdadero,Falso,f,B,incongruent_right,Después de que corrí el maratón no me parecía tan imposible,1,1,1,0,j,1,21,Me sentí mejor corriendo el maratón que anticipaba.,,,,,,,,,,,,,,,,,,,,,,,,,1,0,1,0,0,16,16,0,,,,,,,,,,,,,,,,0.366899967194,0.330374002457,0.366899967194,0.232377052307,0.185637950897,0.599277019501,,,,,,,,j,1,0.656785964966,0.234885931015,0.164091825485,0.834162950516,0.300556898117,0.254848003387,1.13471984863,0.284801959991,0.217210054398,1.41952180862,0.300579071045,0.256137132645,1.72010087967,f,1,4.65012979507,,0.299484968185,0.23317193985,2.01958584785,0.436113119125,0.385159015656,2.45569896698,0.451081037521,0.388732910156,2.9067800045,0.284651994705,0.235316991806,3.19143199921,0.350047826767,0.30574297905,3.54147982597,,,,,,,,,None,None,,,,,,,,,,,,,,,,,,,,,,,,,,,,1,1,4,59.31824320979797,Dissertation,2018_Jul_18_1614,1,
,,1,,,Verdadero,Falso,j,B,congruent_left,Los chicos pusieron el pollo que su mamá preparó en el horno en la mesa antes de comer,1,1,0,0,f,0,39,La mamá preparó la comida en la mesa.,,,,,,,,,,,,,,,,,,,,,,,,,1,0,1,0,0,17,17,18,,,,,,,,,,,,,,,,0.148259878159,0.0968949794769,0.148259878159,0.436900138855,0.372935056686,0.585160017014,,,,,,,,f,1,0.805078983307,0.183471918106,0.105432987213,0.76863193512,0.249350070953,0.170611143112,1.01798200607,0.417869091034,0.304532051086,1.43585109711,0.300446987152,0.203797101974,1.73629808426,j,1,3.43015384674,,0.419057846069,0.30549788475,2.15535593033,0.652344942093,0.541157007217,2.80770087242,0.434553146362,0.356290102005,3.24225401878,0.366225004196,0.286196947098,3.60847902298,0.368730068207,0.289168119431,3.97720909119,0.501453876495,0.422754049301,4.47866296768,0.835232973099,0.753348827362,5.31389594078,,,None,None,0.433721065521,0.353546142578,5.7476170063,0.467875003815,0.404432058334,6.21549201012,1.65324091911,1.59060716629,7.86873292923,0.519005060196,0.450997114182,8.38773798943,0.368927955627,0.289139986038,8.75666594505,,,,,,,,,,,,,1,1,4,59.31824320979797,Dissertation,2018_Jul_18_1614,1,
,,1,,,Verdadero,Falso,j,B,congruent_right,Cuando Dora compró la comida se le quedó en el mercado,1,1,0,0,j,0,30,Dora salió del mercado con la comida.,,,,,,,,,,,,,,,,,,,,,,,,,1,0,1,0,0,18,18,9,,,,,,,,,,,,,,,,0.30010008812,0.248093128204,0.30010008812,0.417726993561,0.354922056198,0.71782708168,,,,,,,,j,1,0.604480028152,0.351357936859,0.287732839584,1.06918501854,0.450476884842,0.387208938599,1.51966190338,0.335644006729,0.271405220032,1.85530591011,0.45041012764,0.388958930969,2.30571603775,j,1,2.19165992737,,0.299650907516,0.251301050186,2.60536694527,0.403862953186,0.355214118958,3.00922989845,0.416884183884,0.372786998749,3.42611408234,0.317506790161,0.255796909332,3.7436208725,0.617140054703,0.569702863693,4.3607609272,,,,,,,,,None,None,,,,,,,,,,,,,,,,,,,,,,,,,,,,1,1,4,59.31824320979797,Dissertation,2018_Jul_18_1614,1,
,,1,,,Verdadero,Falso,j,B,congruent_left,La arquitecta puso los planos que sus compañeros le dejaron en su oficina encima de la mesa para verlos bien,1,1,0,0,f,0,35,La arquitecta sacó los planos de su bolsa.,,,,,,,,,,,,,,,,,,,,,,,,,1,0,1,0,0,19,19,14,,,,,,,,,,,,,,,,0.50137090683,0.441558122635,0.50137090683,0.182754993439,0.101827859879,0.684125900269,,,,,,,,f,1,0.539552927017,0.552947044373,0.472743988037,1.23707294464,0.350998878479,0.272213935852,1.58807182312,0.532984018326,0.454486131668,2.12105584145,0.402567148209,0.306416988373,2.52362298965,j,1,2.44008207321,,0.416333913803,0.336496829987,2.93995690346,0.369091033936,0.285848140717,3.30904793739,0.365956068039,0.285362005234,3.67500400543,0.403045892715,0.324023008347,4.07804989815,0.549474954605,0.470839977264,4.62752485275,0.334166049957,0.25292301178,4.96169090271,0.434713125229,0.352429866791,5.39640402794,,,None,None,0.502728939056,0.421339988708,5.899132967,0.500705957413,0.417225837708,6.39983892441,0.434765100479,0.353166818619,6.83460402489,0.333313941956,0.253638982773,7.16791796684,0.36949801445,0.288119077682,7.53741598129,0.381978034973,0.302551984787,7.91939401627,0.436326980591,0.356270074844,8.35572099686,,,,,,,1,1,4,59.31824320979797,Dissertation,2018_Jul_18_1614,1,
,,1,,,Verdadero,Falso,f,A,congruent_left,a,0,0,0,0,f,0,303,a,,,,,,,,,,,,,,,,,,,,,,,,,1,0,1,0,0,20,20,62,,,,,,,,,,,,,,,,,,,,,,,,,,,,,f,1,0.725645065308,,,,,,,,,,,,,None,0,,,,,,,,,,,,,,,,,,,,,,,,,,None,None,,,,,,,,,,,,,,,,,,,,,,,,,,,,1,1,4,59.31824320979797,Dissertation,2018_Jul_18_1614,1,
,,0,,,Verdadero,Falso,f,B,single_right,Después de preparar el desayuno Pedro limpia bien la cocina,0,0,0,1,j,0,238,Pedro no deja la cocina sucia.,,,,,,,,,,,,,,,,,,,,,,,,,1,0,1,0,0,21,21,37,,,,,,,,,,,,,,,,0.468485116959,0.422183990479,0.468485116959,0.417692899704,0.371266126633,0.886178016663,,,,,,,,j,1,0.656440973282,0.350369930267,0.28551197052,1.23654794693,0.367328166962,0.287099838257,1.60387611389,0.402372837067,0.324560880661,2.00624895096,0.417531967163,0.351931810379,2.42378091812,f,1,2.84618997574,,0.434237003326,0.389187097549,2.85801792145,0.484266996384,0.420018911362,3.34228491783,0.401090145111,0.337924957275,3.74337506294,0.468245029449,0.387810945511,4.21162009239,,,,,,,,,,,,None,None,,,,,,,,,,,,,,,,,,,,,,,,,,,,1,1,4,59.31824320979797,Dissertation,2018_Jul_18_1614,1,
,,1,,,Verdadero,Falso,j,B,congruent_right,Mientras el novio pagaba el diamante se le cayó al piso,1,1,0,0,j,0,26,La esposa dejó caer el diamante al piso.,,,,,,,,,,,,,,,,,,,,,,,,,1,0,1,0,0,22,22,5,,,,,,,,,,,,,,,,0.134731054306,0.105333089828,0.134731054306,0.484923839569,0.438961982727,0.619654893875,,,,,,,,j,1,0.719882965088,0.284343004227,0.238387107849,0.903997898102,0.284016132355,0.235748052597,1.18801403046,0.300695896149,0.24093413353,1.48870992661,0.968254089355,0.904265165329,2.45696401596,f,0,8.51253700256,,0.685813903809,0.637084007263,3.14277791977,0.383073091507,0.336057186127,3.52585101128,0.501612901688,0.453060150146,4.02746391296,0.418572187424,0.36798286438,4.44603610039,0.401922941208,0.356209993362,4.8479590416,,,,,,,,,None,None,,,,,,,,,,,,,,,,,,,,,,,,,,,,1,1,4,59.31824320979797,Dissertation,2018_Jul_18_1614,1,
,,0,,,Verdadero,Falso,f,A,single_left,a,0,0,0,1,f,0,305,a,,,,,,,,,,,,,,,,,,,,,,,,,1,0,1,0,0,23,23,64,,,,,,,,,,,,,,,,,,,,,,,,,,,,,f,1,0.76953291893,,,,,,,,,,,,,None,0,,,,,,,,,,,,,,,,,,,,,,,,,,None,None,,,,,,,,,,,,,,,,,,,,,,,,,,,,1,1,4,59.31824320979797,Dissertation,2018_Jul_18_1614,1,
,,0,,,Verdadero,Falso,f,B,incongruent_left,Los planos del arquitecto tienen un diseño muy creativo ,0,0,1,0,f,0,251,El arquitecto es muy bueno y creativo.,,,,,,,,,,,,,,,,,,,,,,,,,1,0,1,0,0,24,24,50,,,,,,,,,,,,,,,,0.0823340415955,0.0413219928741,0.0823340415955,0.417505025864,0.337556838989,0.499839067459,,,,,,,,f,1,1.0561568737,0.283935785294,0.219295024872,0.783774852753,0.301329135895,0.256241083145,1.08510398865,0.350107908249,0.304493904114,1.4352118969,0.400750160217,0.317696094513,1.83596205711,f,1,3.29360198975,,0.368745803833,0.320943117142,2.20470786095,0.500367164612,0.435312986374,2.70507502556,0.385933876038,0.337808132172,3.0910089016,,,,,,,,,,,,,,,None,None,,,,,,,,,,,,,,,,,,,,,,,,,,,,1,1,4,59.31824320979797,Dissertation,2018_Jul_18_1614,1,
,,1,,,Verdadero,Falso,f,B,congruent_left,"Entre los amigos en la fiesta de Luis estaban sus hermanos, Marisa y Germán ",0,0,0,0,f,0,255,María y Germán son amigos de Luis.,,,,,,,,,,,,,,,,,,,,,,,,,1,0,1,0,0,25,25,54,,,,,,,,,,,,,,,,0.198817968369,0.144922018051,0.198817968369,0.300040960312,0.235584974289,0.49885892868,,,,,,,,f,1,0.636348962784,0.301203966141,0.204024076462,0.800062894821,0.284013032913,0.183927059174,1.08407592773,0.317384958267,0.25349187851,1.401460886,0.302411079407,0.204978942871,1.70387196541,f,1,5.71598911285,,0.250828027725,0.172894001007,1.95469999313,0.417000055313,0.339208126068,2.37170004845,0.501080989838,0.435714006424,2.87278103828,0.266961812973,0.170931816101,3.13974285126,0.35163807869,0.255604982376,3.49138092995,0.384553909302,0.30485200882,3.87593483925,0.418648004532,0.355237007141,4.29458284378,,,None,None,0.568201065063,0.456734895706,4.86278390884,,,,,,,,,,,,,,,,,,,,,,,,,1,1,4,59.31824320979797,Dissertation,2018_Jul_18_1614,1,
,,1,,,Verdadero,Falso,f,A,congruent_left,a,0,0,0,0,f,0,311,a,,,,,,,,,,,,,,,,,,,,,,,,,1,0,1,0,0,26,26,70,,,,,,,,,,,,,,,,,,,,,,,,,,,,,f,1,0.722453117371,,,,,,,,,,,,,None,0,,,,,,,,,,,,,,,,,,,,,,,,,,None,None,,,,,,,,,,,,,,,,,,,,,,,,,,,,1,1,4,59.31824320979797,Dissertation,2018_Jul_18_1614,1,
,,0,,,Verdadero,Falso,f,B,single_left,La estudiante lista adivinó la respuesta correcta primero,0,0,0,1,f,0,248,La estudiante fue la primera en responder. ,,,,,,,,,,,,,,,,,,,,,,,,,1,0,1,0,0,27,27,47,,,,,,,,,,,,,,,,0.46569108963,0.43391084671,0.46569108963,0.316862821579,0.253119945526,0.782553911209,,,,,,,,f,1,0.689186096191,0.352337121964,0.303681850433,1.13489103317,0.366095066071,0.317804098129,1.50098609924,0.35311794281,0.304980993271,1.85410404205,0.366645097733,0.320862054825,2.22074913979,f,1,5.1659591198,,0.434771776199,0.388984918594,2.65552091599,0.434616088867,0.388601064682,3.09013700485,,,,,,,,,,,,,,,,,,None,None,,,,,,,,,,,,,,,,,,,,,,,,,,,,1,1,4,59.31824320979797,Dissertation,2018_Jul_18_1614,1,
,,1,,,Verdadero,Falso,f,A,congruent_right,a,0,0,0,0,j,0,304,a,,,,,,,,,,,,,,,,,,,,,,,,,1,0,1,0,0,28,28,63,,,,,,,,,,,,,,,,,,,,,,,,,,,,,j,1,1.19117712975,,,,,,,,,,,,,None,0,,,,,,,,,,,,,,,,,,,,,,,,,,None,None,,,,,,,,,,,,,,,,,,,,,,,,,,,,1,1,4,59.31824320979797,Dissertation,2018_Jul_18_1614,1,
,,0,,,Verdadero,Falso,f,A,incongruent_left,a,0,0,1,0,f,0,313,a,,,,,,,,,,,,,,,,,,,,,,,,,1,0,1,0,0,29,29,72,,,,,,,,,,,,,,,,,,,,,,,,,,,,,f,1,0.641325950623,,,,,,,,,,,,,None,0,,,,,,,,,,,,,,,,,,,,,,,,,,None,None,,,,,,,,,,,,,,,,,,,,,,,,,,,,1,1,4,59.31824320979797,Dissertation,2018_Jul_18_1614,1,
,,1,,,Verdadero,Falso,f,A,congruent_right,a,0,0,0,0,j,0,308,a,,,,,,,,,,,,,,,,,,,,,,,,,1,0,1,0,0,30,30,67,,,,,,,,,,,,,,,,,,,,,,,,,,,,,j,1,0.488333940506,,,,,,,,,,,,,None,0,,,,,,,,,,,,,,,,,,,,,,,,,,None,None,,,,,,,,,,,,,,,,,,,,,,,,,,,,1,1,4,59.31824320979797,Dissertation,2018_Jul_18_1614,1,
,,1,,,Verdadero,Falso,f,B,congruent_right,Después de hacer la tarea Pilar volvió a jugar videojuegos,0,0,0,0,j,0,241,A Pilar le gustan los videojuegos.,,,,,,,,,,,,,,,,,,,,,,,,,1,0,1,0,0,31,31,40,,,,,,,,,,,,,,,,0.599742889404,0.565271854401,0.599742889404,0.318017959595,0.271172046661,0.917760848999,,,,,,,,j,1,0.574245929718,0.384787082672,0.318856954575,1.30254793167,0.283332109451,0.200484991074,1.58588004112,0.334893941879,0.289331912994,1.920773983,0.332262992859,0.267592191696,2.25303697586,f,1,2.92616701126,,0.336368083954,0.289281845093,2.58940505981,0.551567792892,0.50625705719,3.14097285271,0.316009998322,0.254338979721,3.45698285103,0.402469158173,0.353270053864,3.8594520092,,,,,,,,,,,,None,None,,,,,,,,,,,,,,,,,,,,,,,,,,,,1,1,4,59.31824320979797,Dissertation,2018_Jul_18_1614,1,
,,0,,,Verdadero,Falso,f,A,single_right,a,0,0,0,1,j,0,302,a,,,,,,,,,,,,,,,,,,,,,,,,,1,0,1,0,0,32,32,61,,,,,,,,,,,,,,,,,,,,,,,,,,,,,j,1,0.469159841537,,,,,,,,,,,,,None,0,,,,,,,,,,,,,,,,,,,,,,,,,,None,None,,,,,,,,,,,,,,,,,,,,,,,,,,,,1,1,4,59.31824320979797,Dissertation,2018_Jul_18_1614,1,
,,0,,,Verdadero,Falso,f,B,single_right,Los meseros preparan las verduras en la cocina antes de servirlas,0,0,0,1,j,0,234,Los meseros lavan las verduras.,,,,,,,,,,,,,,,,,,,,,,,,,1,0,1,0,0,33,33,33,,,,,,,,,,,,,,,,0.483713150024,0.444998025894,0.483713150024,0.267304897308,0.219851016998,0.751018047333,,,,,,,,j,1,0.455895900726,0.300401926041,0.253047943115,1.05141997337,0.384361982346,0.336576938629,1.43578195572,0.352160215378,0.304744958878,1.7879421711,0.768072843552,0.701790809631,2.55601501465,f,1,6.28821778297,,0.569149971008,0.522854089737,3.12516498566,0.448805093765,0.385650157928,3.57397007942,0.402478933334,0.353957891464,3.97644901276,0.384232997894,0.338841915131,4.36068201065,0.417941093445,0.337906122208,4.7786231041,,,,,,,,,None,None,,,,,,,,,,,,,,,,,,,,,,,,,,,,1,1,4,59.31824320979797,Dissertation,2018_Jul_18_1614,1,
,,0,,,Verdadero,Falso,j,B,single_left,Cuando era niño mi papá quería ser arquitecto,0,0,0,1,f,0,244,Mi papá quería ser mecánico cuando era menor.,,,,,,,,,,,,,,,,,,,,,,,,,1,0,1,0,0,34,34,43,,,,,,,,,,,,,,,,0.115880966187,0.0854570865631,0.115880966187,0.417470932007,0.370164871216,0.533351898193,,,,,,,,f,1,0.704438209534,0.215748071671,0.168496847153,0.749099969864,0.250250101089,0.202095031738,0.999350070953,0.318641901016,0.269284963608,1.31799197197,0.335501909256,0.284789085388,1.65349388123,j,1,2.6084690094,,0.30050611496,0.254648923874,1.95399999619,0.349253892899,0.285757064819,2.30325388908,,,,,,,,,,,,,,,,,,None,None,,,,,,,,,,,,,,,,,,,,,,,,,,,,1,1,4,59.31824320979797,Dissertation,2018_Jul_18_1614,1,
