practiceimage,PracticeimageCorrAns,congruent,practiceSentence,practiceSentenceCompQ,compRespL,compRespR,compRespCorr,block,image,sentence,ambiguous,critical,Incongruent,Single,imageCorrAns,incongruentambiguous,criticalSentenceCode,compQ,RepeatFlankerIfNeeded.thisRepN,RepeatFlankerIfNeeded.thisTrialN,RepeatFlankerIfNeeded.thisN,RepeatFlankerIfNeeded.thisIndex,practiceFlankerLoop.thisRepN,practiceFlankerLoop.thisTrialN,practiceFlankerLoop.thisN,practiceFlankerLoop.thisIndex,RepeatPracticeSentencesIfNeeded.thisRepN,RepeatPracticeSentencesIfNeeded.thisTrialN,RepeatPracticeSentencesIfNeeded.thisN,RepeatPracticeSentencesIfNeeded.thisIndex,practiceSentenceLoop.thisRepN,practiceSentenceLoop.thisTrialN,practiceSentenceLoop.thisN,practiceSentenceLoop.thisIndex,MixedPractice.thisRepN,MixedPractice.thisTrialN,MixedPractice.thisN,MixedPractice.thisIndex,MixedPracticeTrial.thisRepN,MixedPracticeTrial.thisTrialN,MixedPracticeTrial.thisN,MixedPracticeTrial.thisIndex,blocks.thisRepN,blocks.thisTrialN,blocks.thisN,blocks.thisIndex,trials.thisRepN,trials.thisTrialN,trials.thisN,trials.thisIndex,keyResponseIntroText.keys,keyResponseIntroText.rt,keyResponseIntro2Text.keys,keyResponseIntro2Text.rt,FlankerInstructions_keyresponse.keys,FlankerInstructions_keyresponse.rt,FlankerInstructions2_keyresponse.keys,FlankerInstructions2_keyresponse.rt,PracticeFlankerResponse.keys,PracticeFlankerResponse.corr,PracticeFlankerResponse.rt,SPRInstructions_keyresponse.keys,SPRInstructions_keyresponse.rt,SPRinstructions2_keyresponse.keys,SPRinstructions2_keyresponse.rt,IRI_0,IRI_FL_0,space_0,IRI_1,IRI_FL_1,space_1,IRI_2,IRI_FL_2,space_2,IRI_3,IRI_FL_3,space_3,IRI_4,IRI_FL_4,space_4,IRI_5,IRI_FL_5,space_5,IRI_6,IRI_FL_6,space_6,IRI_7,IRI_FL_7,space_7,IRI_8,IRI_FL_8,space_8,IRI_9,IRI_FL_9,space_9,IRI_10,IRI_FL_10,space_10,IRI_11,IRI_FL_11,space_11,IRI_12,IRI_FL_12,space_12,IRI_13,IRI_FL_13,space_13,key_resp_practiceCompQ.keys,key_resp_practiceCompQ.corr,key_resp_practiceCompQ.rt,IRI_14,IRI_FL_14,space_14,IRI_15,IRI_FL_15,space_15,combinedInstructions_keyresponse.keys,combinedInstructions_keyresponse.rt,keyResponseInstructionsMixed.keys,keyResponseInstructionsMixed.rt,flankerkeyresponse.keys,flankerkeyresponse.corr,flankerkeyresponse.rt,CompQkeyresponse.keys,CompQkeyresponse.corr,CompQkeyresponse.rt,key_resp_3.keys,keyResponsePreStart.keys,keyResponsePreStart.rt,key_resp_2.keys,key_resp_4.keys,IRI_16,IRI_FL_16,space_16,IRI_17,IRI_FL_17,space_17,IRI_18,IRI_FL_18,space_18,IRI_19,IRI_FL_19,space_19,key_resp_4.rt,rest_keyresponse.keys,rest_keyresponse.rt,IRI_20,IRI_FL_20,space_20,session,participant,level,frameRate,expName,date,group,
,,,,,,,,,,,,,,,,,,,,,,,,,,,,,,,,,,,,,,,,,,,,,,,,,,,space,14.5254900455,,,,,,,,,,,,,,,,,,,,,,,,,,,,,,,,,,,,,,,,,,,,,,,,,,,,,,,,,,,,,,,,,,,,,,,,,,,,,,,,,,,,,,,,,,,,,,,,,,1,2,4,60.061145088560146,Dissertation,2018_Jul_18_1902,2,
,,,,,,,,,,,,,,,,,,,,,,,,,,,,,,,,,,,,,,,,,,,,,,,,,,,,,space,32.5277240276,,,,,,,,,,,,,,,,,,,,,,,,,,,,,,,,,,,,,,,,,,,,,,,,,,,,,,,,,,,,,,,,,,,,,,,,,,,,,,,,,,,,,,,,,,,,,,,,1,2,4,60.061145088560146,Dissertation,2018_Jul_18_1902,2,
,,,,,,,,,,,,,,,,,,,,,,,,,,,,,,,,,,,,,,,,,,,,,,,,,,,,,,,space,11.4333047867,,,,,,,,,,,,,,,,,,,,,,,,,,,,,,,,,,,,,,,,,,,,,,,,,,,,,,,,,,,,,,,,,,,,,,,,,,,,,,,,,,,,,,,,,,,,,,1,2,4,60.061145088560146,Dissertation,2018_Jul_18_1902,2,
incongruent_right,j,0,Tu tarea es leer la frase de la manera más natural posible,No tienes que prestarle atención a la oración.,Verdadero,Falso,j,practice,,,,,,,,,,,0,0,0,0,0,0,0,3,,,,,,,,,,,,,,,,,,,,,,,,,,,,,,,space,2.52719807625,j,1,1.14071583748,,,,,,,,,,,,,,,,,,,,,,,,,,,,,,,,,,,,,,,,,,,,,,,,,,,,,,,,,,,,,,,,,,,,,,,,,,,,,,,,,,,,,,,,,1,2,4,60.061145088560146,Dissertation,2018_Jul_18_1902,2,
congruent_left,f,1,Este es un ejemplo de las frases que verás a lo largo del experimento,Viste un ejemplo de una oración estimulo.,Verdadero,Falso,f,practice,,,,,,,,,,,0,0,0,0,0,1,1,0,,,,,,,,,,,,,,,,,,,,,,,,,,,,,,,,,f,1,0.551313877106,,,,,,,,,,,,,,,,,,,,,,,,,,,,,,,,,,,,,,,,,,,,,,,,,,,,,,,,,,,,,,,,,,,,,,,,,,,,,,,,,,,,,,,,,1,2,4,60.061145088560146,Dissertation,2018_Jul_18_1902,2,
incongruent_left,f,0,A veces serán más cortas,Todas las frases son iguales.,Verdadero,Falso,j,practice,,,,,,,,,,,0,0,0,0,0,2,2,2,,,,,,,,,,,,,,,,,,,,,,,,,,,,,,,,,f,1,0.521649122238,,,,,,,,,,,,,,,,,,,,,,,,,,,,,,,,,,,,,,,,,,,,,,,,,,,,,,,,,,,,,,,,,,,,,,,,,,,,,,,,,,,,,,,,,1,2,4,60.061145088560146,Dissertation,2018_Jul_18_1902,2,
single_left,f,0,Las preguntas que siguen cada oración a veces serán obvias y a veces serán más difíciles,La dificultad de cada pregunta varía.,Verdadero,Falso,f,practice,,,,,,,,,,,0,0,0,0,0,3,3,4,,,,,,,,,,,,,,,,,,,,,,,,,,,,,,,,,f,1,0.405259132385,,,,,,,,,,,,,,,,,,,,,,,,,,,,,,,,,,,,,,,,,,,,,,,,,,,,,,,,,,,,,,,,,,,,,,,,,,,,,,,,,,,,,,,,,1,2,4,60.061145088560146,Dissertation,2018_Jul_18_1902,2,
single_right,j,0,No pasa nada si tienes que adivinar la respuesta de vez en cuando,Es importante que no adivines.,Verdadero,Falso,j,practice,,,,,,,,,,,0,0,0,0,0,4,4,5,,,,,,,,,,,,,,,,,,,,,,,,,,,,,,,,,j,1,0.503210783005,,,,,,,,,,,,,,,,,,,,,,,,,,,,,,,,,,,,,,,,,,,,,,,,,,,,,,,,,,,,,,,,,,,,,,,,,,,,,,,,,,,,,,,,,1,2,4,60.061145088560146,Dissertation,2018_Jul_18_1902,2,
congruent_right,j,1,A veces las oraciones serán muy largas,Algunas frases son largas.,Verdadero,Falso,f,practice,,,,,,,,,,,0,0,0,0,0,5,5,1,,,,,,,,,,,,,,,,,,,,,,,,,,,,,,,,,j,1,0.47222495079,,,,,,,,,,,,,,,,,,,,,,,,,,,,,,,,,,,,,,,,,,,,,,,,,,,,,,,,,,,,,,,,,,,,,,,,,,,,,,,,,,,,,,,,,1,2,4,60.061145088560146,Dissertation,2018_Jul_18_1902,2,
congruent_right,j,1,A veces las oraciones serán muy largas,Algunas frases son largas.,Verdadero,Falso,f,practice,,,,,,,,,,,0,0,0,0,1,0,6,1,,,,,,,,,,,,,,,,,,,,,,,,,,,,,,,,,j,1,0.488430976868,,,,,,,,,,,,,,,,,,,,,,,,,,,,,,,,,,,,,,,,,,,,,,,,,,,,,,,,,,,,,,,,,,,,,,,,,,,,,,,,,,,,,,,,,1,2,4,60.061145088560146,Dissertation,2018_Jul_18_1902,2,
single_left,f,0,Las preguntas que siguen cada oración a veces serán obvias y a veces serán más difíciles,La dificultad de cada pregunta varía.,Verdadero,Falso,f,practice,,,,,,,,,,,0,0,0,0,1,1,7,4,,,,,,,,,,,,,,,,,,,,,,,,,,,,,,,,,f,1,0.42166185379,,,,,,,,,,,,,,,,,,,,,,,,,,,,,,,,,,,,,,,,,,,,,,,,,,,,,,,,,,,,,,,,,,,,,,,,,,,,,,,,,,,,,,,,,1,2,4,60.061145088560146,Dissertation,2018_Jul_18_1902,2,
congruent_left,f,1,Este es un ejemplo de las frases que verás a lo largo del experimento,Viste un ejemplo de una oración estimulo.,Verdadero,Falso,f,practice,,,,,,,,,,,0,0,0,0,1,2,8,0,,,,,,,,,,,,,,,,,,,,,,,,,,,,,,,,,f,1,0.387418985367,,,,,,,,,,,,,,,,,,,,,,,,,,,,,,,,,,,,,,,,,,,,,,,,,,,,,,,,,,,,,,,,,,,,,,,,,,,,,,,,,,,,,,,,,1,2,4,60.061145088560146,Dissertation,2018_Jul_18_1902,2,
incongruent_right,j,0,Tu tarea es leer la frase de la manera más natural posible,No tienes que prestarle atención a la oración.,Verdadero,Falso,j,practice,,,,,,,,,,,0,0,0,0,1,3,9,3,,,,,,,,,,,,,,,,,,,,,,,,,,,,,,,,,j,1,0.505594015121,,,,,,,,,,,,,,,,,,,,,,,,,,,,,,,,,,,,,,,,,,,,,,,,,,,,,,,,,,,,,,,,,,,,,,,,,,,,,,,,,,,,,,,,,1,2,4,60.061145088560146,Dissertation,2018_Jul_18_1902,2,
incongruent_left,f,0,A veces serán más cortas,Todas las frases son iguales.,Verdadero,Falso,j,practice,,,,,,,,,,,0,0,0,0,1,4,10,2,,,,,,,,,,,,,,,,,,,,,,,,,,,,,,,,,f,1,0.440174818039,,,,,,,,,,,,,,,,,,,,,,,,,,,,,,,,,,,,,,,,,,,,,,,,,,,,,,,,,,,,,,,,,,,,,,,,,,,,,,,,,,,,,,,,,1,2,4,60.061145088560146,Dissertation,2018_Jul_18_1902,2,
single_right,j,0,No pasa nada si tienes que adivinar la respuesta de vez en cuando,Es importante que no adivines.,Verdadero,Falso,j,practice,,,,,,,,,,,0,0,0,0,1,5,11,5,,,,,,,,,,,,,,,,,,,,,,,,,,,,,,,,,j,1,0.388825893402,,,,,,,,,,,,,,,,,,,,,,,,,,,,,,,,,,,,,,,,,,,,,,,,,,,,,,,,,,,,,,,,,,,,,,,,,,,,,,,,,,,,,,,,,1,2,4,60.061145088560146,Dissertation,2018_Jul_18_1902,2,
congruent_left,f,1,Este es un ejemplo de las frases que verás a lo largo del experimento,Viste un ejemplo de una oración estimulo.,Verdadero,Falso,f,practice,,,,,,,,,,,0,0,0,0,2,0,12,0,,,,,,,,,,,,,,,,,,,,,,,,,,,,,,,,,f,1,0.423855066299,,,,,,,,,,,,,,,,,,,,,,,,,,,,,,,,,,,,,,,,,,,,,,,,,,,,,,,,,,,,,,,,,,,,,,,,,,,,,,,,,,,,,,,,,1,2,4,60.061145088560146,Dissertation,2018_Jul_18_1902,2,
single_right,j,0,No pasa nada si tienes que adivinar la respuesta de vez en cuando,Es importante que no adivines.,Verdadero,Falso,j,practice,,,,,,,,,,,0,0,0,0,2,1,13,5,,,,,,,,,,,,,,,,,,,,,,,,,,,,,,,,,j,1,0.587908029556,,,,,,,,,,,,,,,,,,,,,,,,,,,,,,,,,,,,,,,,,,,,,,,,,,,,,,,,,,,,,,,,,,,,,,,,,,,,,,,,,,,,,,,,,1,2,4,60.061145088560146,Dissertation,2018_Jul_18_1902,2,
congruent_right,j,1,A veces las oraciones serán muy largas,Algunas frases son largas.,Verdadero,Falso,f,practice,,,,,,,,,,,0,0,0,0,2,2,14,1,,,,,,,,,,,,,,,,,,,,,,,,,,,,,,,,,j,1,0.437910079956,,,,,,,,,,,,,,,,,,,,,,,,,,,,,,,,,,,,,,,,,,,,,,,,,,,,,,,,,,,,,,,,,,,,,,,,,,,,,,,,,,,,,,,,,1,2,4,60.061145088560146,Dissertation,2018_Jul_18_1902,2,
single_left,f,0,Las preguntas que siguen cada oración a veces serán obvias y a veces serán más difíciles,La dificultad de cada pregunta varía.,Verdadero,Falso,f,practice,,,,,,,,,,,0,0,0,0,2,3,15,4,,,,,,,,,,,,,,,,,,,,,,,,,,,,,,,,,f,1,0.322309017181,,,,,,,,,,,,,,,,,,,,,,,,,,,,,,,,,,,,,,,,,,,,,,,,,,,,,,,,,,,,,,,,,,,,,,,,,,,,,,,,,,,,,,,,,1,2,4,60.061145088560146,Dissertation,2018_Jul_18_1902,2,
incongruent_left,f,0,A veces serán más cortas,Todas las frases son iguales.,Verdadero,Falso,j,practice,,,,,,,,,,,0,0,0,0,2,4,16,2,,,,,,,,,,,,,,,,,,,,,,,,,,,,,,,,,f,1,0.449604034424,,,,,,,,,,,,,,,,,,,,,,,,,,,,,,,,,,,,,,,,,,,,,,,,,,,,,,,,,,,,,,,,,,,,,,,,,,,,,,,,,,,,,,,,,1,2,4,60.061145088560146,Dissertation,2018_Jul_18_1902,2,
incongruent_right,j,0,Tu tarea es leer la frase de la manera más natural posible,No tienes que prestarle atención a la oración.,Verdadero,Falso,j,practice,,,,,,,,,,,0,0,0,0,2,5,17,3,,,,,,,,,,,,,,,,,,,,,,,,,,,,,,,,,j,1,0.406400918961,,,,,,,,,,,,,,,,,,,,,,,,,,,,,,,,,,,,,,,,,,,,,,,,,,,,,,,,,,,,,,,,,,,,,,,,,,,,,,,,,,,,,,,,,1,2,4,60.061145088560146,Dissertation,2018_Jul_18_1902,2,
single_left,f,0,Las preguntas que siguen cada oración a veces serán obvias y a veces serán más difíciles,La dificultad de cada pregunta varía.,Verdadero,Falso,f,practice,,,,,,,,,,,0,0,0,0,3,0,18,4,,,,,,,,,,,,,,,,,,,,,,,,,,,,,,,,,f,1,0.588390111923,,,,,,,,,,,,,,,,,,,,,,,,,,,,,,,,,,,,,,,,,,,,,,,,,,,,,,,,,,,,,,,,,,,,,,,,,,,,,,,,,,,,,,,,,1,2,4,60.061145088560146,Dissertation,2018_Jul_18_1902,2,
single_right,j,0,No pasa nada si tienes que adivinar la respuesta de vez en cuando,Es importante que no adivines.,Verdadero,Falso,j,practice,,,,,,,,,,,0,0,0,0,3,1,19,5,,,,,,,,,,,,,,,,,,,,,,,,,,,,,,,,,j,1,0.423213005066,,,,,,,,,,,,,,,,,,,,,,,,,,,,,,,,,,,,,,,,,,,,,,,,,,,,,,,,,,,,,,,,,,,,,,,,,,,,,,,,,,,,,,,,,1,2,4,60.061145088560146,Dissertation,2018_Jul_18_1902,2,
incongruent_left,f,0,A veces serán más cortas,Todas las frases son iguales.,Verdadero,Falso,j,practice,,,,,,,,,,,0,0,0,0,3,2,20,2,,,,,,,,,,,,,,,,,,,,,,,,,,,,,,,,,f,1,0.455699920654,,,,,,,,,,,,,,,,,,,,,,,,,,,,,,,,,,,,,,,,,,,,,,,,,,,,,,,,,,,,,,,,,,,,,,,,,,,,,,,,,,,,,,,,,1,2,4,60.061145088560146,Dissertation,2018_Jul_18_1902,2,
congruent_right,j,1,A veces las oraciones serán muy largas,Algunas frases son largas.,Verdadero,Falso,f,practice,,,,,,,,,,,0,0,0,0,3,3,21,1,,,,,,,,,,,,,,,,,,,,,,,,,,,,,,,,,j,1,0.384371042252,,,,,,,,,,,,,,,,,,,,,,,,,,,,,,,,,,,,,,,,,,,,,,,,,,,,,,,,,,,,,,,,,,,,,,,,,,,,,,,,,,,,,,,,,1,2,4,60.061145088560146,Dissertation,2018_Jul_18_1902,2,
incongruent_right,j,0,Tu tarea es leer la frase de la manera más natural posible,No tienes que prestarle atención a la oración.,Verdadero,Falso,j,practice,,,,,,,,,,,0,0,0,0,3,4,22,3,,,,,,,,,,,,,,,,,,,,,,,,,,,,,,,,,j,1,0.488310098648,,,,,,,,,,,,,,,,,,,,,,,,,,,,,,,,,,,,,,,,,,,,,,,,,,,,,,,,,,,,,,,,,,,,,,,,,,,,,,,,,,,,,,,,,1,2,4,60.061145088560146,Dissertation,2018_Jul_18_1902,2,
congruent_left,f,1,Este es un ejemplo de las frases que verás a lo largo del experimento,Viste un ejemplo de una oración estimulo.,Verdadero,Falso,f,practice,,,,,,,,,,,0,0,0,0,3,5,23,0,,,,,,,,,,,,,,,,,,,,,,,,,,,,,,,,,f,1,0.372163057327,,,,,,,,,,,,,,,,,,,,,,,,,,,,,,,,,,,,,,,,,,,,,,,,,,,,,,,,,,,,,,,,,,,,,,,,,,,,,,,,,,,,,,,,,1,2,4,60.061145088560146,Dissertation,2018_Jul_18_1902,2,
,,,,,,,,,,,,,,,,,,,0,0,0,0,,,,,,,,,,,,,,,,,,,,,,,,,,,,,,,,,,,,,,,,,,,,,,,,,,,,,,,,,,,,,,,,,,,,,,,,,,,,,,,,,,,,,,,,,,,,,,,,,,,,,,,,,,,,,,,,,,,,,,,,,,,,,,,,1,2,4,60.061145088560146,Dissertation,2018_Jul_18_1902,2,
,,,,,,,,,,,,,,,,,,,,,,,,,,,,,,,,,,,,,,,,,,,,,,,,,,,,,,,,,,,,,,space,88.1798489094,,,,,,,,,,,,,,,,,,,,,,,,,,,,,,,,,,,,,,,,,,,,,,,,,,,,,,,,,,,,,,,,,,,,,,,,,,,,,,,,,,,,,,,1,2,4,60.061145088560146,Dissertation,2018_Jul_18_1902,2,
congruent_left,f,1,Este es un ejemplo de las frases que verás a lo largo del experimento,Viste un ejemplo de una oración estimulo.,Verdadero,Falso,f,practice,,,,,,,,,,,,,,,,,,,0,0,0,0,0,0,0,0,,,,,,,,,,,,,,,,,,,,,,,,,,,,,,space,13.8094379902,1.85478901863,1.7773308754,1.85478901863,0.819457054138,0.755628824234,2.67424607277,0.700016975403,0.632771015167,3.37426304817,0.921550989151,0.857328891754,4.29581403732,0.55122089386,0.491210222244,4.84703493118,0.484622955322,0.418533086777,5.33165788651,0.450809001923,0.385941982269,5.78246688843,0.600475072861,0.536989927292,6.38294196129,0.436101913452,0.367609977722,6.81904387474,0.434828996658,0.373420953751,7.2538728714,0.417530059814,0.354892969131,7.67140293121,0.417642116547,0.353905916214,8.08904504776,0.467892885208,0.407112121582,8.55693793297,0.367426156998,0.306332111359,8.92436408997,f,1,4.21278905869,,,,,,,,,,,,,,,,,,,,,,,,,,,,,,,,,,,,,,,,1,2,4,60.061145088560146,Dissertation,2018_Jul_18_1902,2,
congruent_right,j,1,A veces las oraciones serán muy largas,Algunas frases son largas.,Verdadero,Falso,f,practice,,,,,,,,,,,,,,,,,,,0,0,0,0,0,1,1,1,,,,,,,,,,,,,,,,,,,,,,,,,,,,,,,,1.20143389702,1.17529702187,1.20143389702,0.400968074799,0.35505604744,1.60240197182,0.449203968048,0.39993596077,2.05160593987,0.319266080856,0.284490823746,2.37087202072,0.317636966705,0.271898984909,2.68850898743,0.434757947922,0.384361028671,3.12326693535,0.317589044571,0.270990848541,3.44085597992,,,,,,,,,,,,,,,,,,,,,,f,1,2.12864303589,,,,,,,,,,,,,,,,,,,,,,,,,,,,,,,,,,,,,,,,1,2,4,60.061145088560146,Dissertation,2018_Jul_18_1902,2,
incongruent_left,f,0,A veces serán más cortas,Todas las frases son iguales.,Verdadero,Falso,j,practice,,,,,,,,,,,,,,,,,,,0,0,0,0,0,2,2,2,,,,,,,,,,,,,,,,,,,,,,,,,,,,,,,,1.04682302475,1.0272359848,1.04682302475,0.399892091751,0.371794939041,1.4467151165,0.56903386116,0.539224147797,2.01574897766,0.316665172577,0.26988196373,2.33241415024,0.385284900665,0.356396913528,2.7176990509,,,,,,,,,,,,,,,,,,,,,,,,,,,,j,1,2.01024699211,,,,,,,,,,,,,,,,,,,,,,,,,,,,,,,,,,,,,,,,1,2,4,60.061145088560146,Dissertation,2018_Jul_18_1902,2,
incongruent_right,j,0,Tu tarea es leer la frase de la manera más natural posible,No tienes que prestarle atención a la oración.,Verdadero,Falso,j,practice,,,,,,,,,,,,,,,,,,,0,0,0,0,0,3,3,3,,,,,,,,,,,,,,,,,,,,,,,,,,,,,,,,0.96265411377,0.930437088013,0.96265411377,0.468241930008,0.422702074051,1.43089604378,0.517452001572,0.455708026886,1.94834804535,0.284250020981,0.240157842636,2.23259806633,0.434504032135,0.355776071548,2.66710209846,0.401232004166,0.355827093124,3.06833410263,0.568133831024,0.505111932755,3.63646793365,0.518213033676,0.469051122665,4.15468096733,0.417041063309,0.373161077499,4.57172203064,0.635725975037,0.572764873505,5.20744800568,0.334280967712,0.271904945374,5.54172897339,0.46742105484,0.406536102295,6.00915002823,,,,,,,j,1,3.17970108986,,,,,,,,,,,,,,,,,,,,,,,,,,,,,,,,,,,,,,,,1,2,4,60.061145088560146,Dissertation,2018_Jul_18_1902,2,
single_left,f,0,Las preguntas que siguen cada oración a veces serán obvias y a veces serán más difíciles,La dificultad de cada pregunta varía.,Verdadero,Falso,f,practice,,,,,,,,,,,,,,,,,,,0,0,0,0,0,4,4,4,,,,,,,,,,,,,,,,,,,,,,,,,,,,,,,,0.812967061996,0.762068986893,0.812967061996,0.466860055923,0.406584024429,1.27982711792,0.535296916962,0.472450971603,1.81512403488,0.43447303772,0.353667974472,2.2495970726,0.518449068069,0.436222791672,2.76804614067,0.399142026901,0.318125009537,3.16718816757,0.352293014526,0.287757873535,3.5194811821,0.417621850967,0.354950904846,3.93710303307,0.768975019455,0.706053972244,4.70607805252,0.699865102768,0.619238853455,5.40594315529,0.469205856323,0.400917053223,5.87514901161,0.485293149948,0.418807983398,6.36044216156,0.434370994568,0.351760864258,6.79481315613,0.401552915573,0.339198112488,7.1963660717,f,1,1.90981316566,0.417194128036,0.356038093567,7.61356019974,0.735818862915,0.655975103378,8.34937906265,,,,,,,,,,,,,,,,,,,,,,,,,,,,,,,,,,1,2,4,60.061145088560146,Dissertation,2018_Jul_18_1902,2,
single_right,j,0,No pasa nada si tienes que adivinar la respuesta de vez en cuando,Es importante que no adivines.,Verdadero,Falso,j,practice,,,,,,,,,,,,,,,,,,,0,0,0,0,0,5,5,5,,,,,,,,,,,,,,,,,,,,,,,,,,,,,,,,0.86270904541,0.822690963745,0.86270904541,0.48451590538,0.421914100647,1.34722495079,0.449928045273,0.387283086777,1.79715299606,0.335417032242,0.271841049194,2.13257002831,0.41646695137,0.337232112885,2.54903697968,0.484624862671,0.405903100967,3.03366184235,0.368806123734,0.287976026535,3.40246796608,0.351146936417,0.289077997208,3.7536149025,0.684920072556,0.623899936676,4.43853497505,0.68533706665,0.606561899185,5.1238720417,0.384673833847,0.322850942612,5.50854587555,0.400508165359,0.321391105652,5.90905404091,0.685429811478,0.62264084816,6.59448385239,,,,j,1,1.92178106308,,,,,,,,,,,,,,,,,,,,,,,,,,,,,,,,,,,,,,,,1,2,4,60.061145088560146,Dissertation,2018_Jul_18_1902,2,
,,,,,,,,,,,,,,,,,,,,,,,,,,,0,0,0,0,,,,,,,,,,,,,,,,,,,,,,,,,,,,,,,,,,,,,,,,,,,,,,,,,,,,,,,,,,,,,,,,,,,,,,,,,,,,,,,,,,,,,,,,,,,,,,,,,,,,,,,,,,,,,,,,,,,,,,,,1,2,4,60.061145088560146,Dissertation,2018_Jul_18_1902,2,
,,,,,,,,,,,,,,,,,,,,,,,,,,,,,,,,,,,,,,,,,,,,,,,,,,,,,,,,,,,,,,,,,,,,,,,,,,,,,,,,,,,,,,,,,,,,,,,,,,,,,,,,,,,,,,,,,,,,,space,65.2415540218,,,,,,,,,,,,,,,,,,,,,,,,,,,,,,,,1,2,4,60.061145088560146,Dissertation,2018_Jul_18_1902,2,
,,None,,,Verdadero,Falso,f,None,congruent_right,Me gusta vivir en la ciudad de Washington porque tiene mucha historia,None,None,None,None,j,None,None,Estoy contento viviendo en D.C.,,,,,,,,,,,,,,,,,0,0,0,0,0,0,0,3,,,,,,,,,,,,,,,,,,,,,,,,0.786684036255,0.741826057434,0.786684036255,0.417747020721,0.355158090591,1.20443105698,0.40149307251,0.339354038239,1.60592412949,0.384619951248,0.305003881454,1.99054408073,0.315570831299,0.250092029572,2.30611491203,0.385527133942,0.338181018829,2.69164204597,0.317584037781,0.255328178406,3.00922608376,0.317551851273,0.255816936493,3.32677793503,0.434358119965,0.338593006134,3.76113605499,0.332692861557,0.268481969833,4.09382891655,0.250843048096,0.170311927795,4.34467196465,0.45339512825,0.369364976883,4.7980670929,,,,,,,,,,,,,,,,,,space,4.33504915237,j,1,0.972877025604,f,1,4.8329911232,None,,,,,,,,,,,,,,,,,,,,,,,1,2,4,60.061145088560146,Dissertation,2018_Jul_18_1902,2,
,,None,,,Verdadero,Falso,f,None,incongruent_right,Estudio mucho durante la semana para poder divertirme durante el fin de semana,None,None,None,None,j,None,None,No voy a la biblioteca mucho los fines de semana.,,,,,,,,,,,,,,,,,0,0,0,0,0,1,1,2,,,,,,,,,,,,,,,,,,,,,,,,0.501405954361,0.460492134094,0.501405954361,0.333128929138,0.270690917969,0.834534883499,0.250664949417,0.151263952255,1.08519983292,0.235334157944,0.1394739151,1.32053399086,0.416976928711,0.335581064224,1.73751091957,0.399513959885,0.334689855576,2.13702487946,0.302577018738,0.237617015839,2.43960189819,0.351501941681,0.288718938828,2.79110383987,0.366361141205,0.288462162018,3.15746498108,0.334857940674,0.271092176437,3.49232292175,0.435082912445,0.37155008316,3.9274058342,0.384473085403,0.322350025177,4.3118789196,0.233943939209,0.155385017395,4.54582285881,,,,,,,,,,,,,,,,,j,1,1.00890302658,f,1,4.43541789055,None,,,,,,,,,,,,,,,,,,,,,,,1,2,4,60.061145088560146,Dissertation,2018_Jul_18_1902,2,
,,None,,,Verdadero,Falso,f,None,single_right,La madre de Julieta vive en Filadelfia así que Julieta la visita mucho,None,None,None,None,j,None,None,Julieta y su madre se ven mucho.,,,,,,,,,,,,,,,,,0,0,0,0,0,2,2,4,,,,,,,,,,,,,,,,,,,,,,,,0.767659902573,0.727334976196,0.767659902573,0.366059064865,0.302854061127,1.13371896744,0.38570189476,0.338173151016,1.5194208622,0.365742921829,0.301892995834,1.88516378403,0.352722167969,0.288743019104,2.237885952,0.501984834671,0.389147043228,2.73987078667,0.383024215698,0.320323944092,3.12289500237,0.419257879257,0.340682029724,3.54215288162,0.482737064362,0.401854038239,4.02488994598,0.418910980225,0.355178117752,4.44380092621,0.368041038513,0.304927110672,4.81184196472,0.433037996292,0.368442058563,5.24487996101,0.518889904022,0.455098867416,5.76376986504,,,,,,,,,,,,,,,,,j,1,1.37461900711,f,1,2.19276285172,None,,,,,,,,,,,,,,,,,,,,,,,1,2,4,60.061145088560146,Dissertation,2018_Jul_18_1902,2,
,,None,,,Verdadero,Falso,j,None,incongruent_left,Mi estación preferida es el verano,None,None,None,None,f,None,None,Me gusta el invierno más que las otras estaciones.,,,,,,,,,,,,,,,,,0,0,0,0,0,3,3,1,,,,,,,,,,,,,,,,,,,,,,,,0.618062019348,0.581650018692,0.618062019348,0.315701007843,0.271027088165,0.933763027191,0.41935300827,0.371255159378,1.35311603546,0.267650842667,0.207711935043,1.62076687813,0.417351007462,0.374053001404,2.03811788559,0.350628137589,0.306258916855,2.38874602318,,,,,,,,,,,,,,,,,,,,,,,,,,,,,,,,,,,,,,f,1,0.58812713623,j,1,2.12404513359,None,,,,,,,,,,,,,,,,,,,,,,,1,2,4,60.061145088560146,Dissertation,2018_Jul_18_1902,2,
,,None,,,Verdadero,Falso,j,None,congruent_left,El chico corrió en el parque ayer,None,None,None,None,f,None,None,El chico no hizo nada ayer.,,,,,,,,,,,,,,,,,0,0,0,0,0,4,4,0,,,,,,,,,,,,,,,,,,,,,,,,0.701019048691,0.673834085464,0.701019048691,0.434433937073,0.387735128403,1.13545298576,0.433428049088,0.38723897934,1.56888103485,0.285655021667,0.237628936768,1.85453605652,0.350178956985,0.302193880081,2.2047150135,0.434246063232,0.389376878738,2.63896107674,0.503010034561,0.457093954086,3.1419711113,,,,,,,,,,,,,,,,,,,,,,,,,,,,,,,,,,,f,1,0.638096094131,j,1,1.54018092155,None,,,,,,,,,,,,,,,,,,,,,,,1,2,4,60.061145088560146,Dissertation,2018_Jul_18_1902,2,
,,None,,,Verdadero,Falso,j,None,single_left,A Iván le gusta cocinar y toma clases de gastronomía,None,None,None,None,f,None,None,Iván cocina mucho.,,,,,,,,,,,,,,,,,0,0,0,0,0,5,5,5,,,,,,,,,,,,,,,,,,,,,,,,0.468734025955,0.443151950836,0.468734025955,0.400907993317,0.356277942657,0.869642019272,0.333016872406,0.269057035446,1.20265889168,0.369442224503,0.307317018509,1.57210111618,0.41613483429,0.34964299202,1.98823595047,0.369235038757,0.318591117859,2.35747098923,0.366149902344,0.315917015076,2.72362089157,0.302770137787,0.255066156387,3.02639102936,0.433788061142,0.388327121735,3.4601790905,0.316628932953,0.270351886749,3.77680802345,,,,,,,,,,,,,,,,,,,,,,,,,,f,1,0.773792028427,f,0,1.77463293076,None,,,,,,,,,,,,,,,,,,,,,,,1,2,4,60.061145088560146,Dissertation,2018_Jul_18_1902,2,
,,,,,,,,,,,,,,,,,,,,,,,,,,,,,,,,,,,0,0,0,0,,,,,,,,,,,,,,,,,,,,,,,,,,,,,,,,,,,,,,,,,,,,,,,,,,,,,,,,,,,,,,,,,,,,,,,,,,,,,,,,,,,,,,,,,,,,,,,,,,,,,,,,,,,,,,,,1,2,4,60.061145088560146,Dissertation,2018_Jul_18_1902,2,
,,,,,,,,,,,,,,,,,,,,,,,,,,,,,,,,,,,,,,,,,,,,,,,,,,,,,,,,,,,,,,,,,,,,,,,,,,,,,,,,,,,,,,,,,,,,,,,,,,,,,,,,,,,,,,,,,,,,,,,,,,,,,,,,space,163.006999016,,,,,,,,,,,,,,,,,,,,,1,2,4,60.061145088560146,Dissertation,2018_Jul_18_1902,2,
,,0,,,Verdadero,Falso,f,A,single_left,a,0,0,0,1,f,0,301,a,,,,,,,,,,,,,,,,,,,,,,,,,0,0,0,0,0,0,0,60,,,,,,,,,,,,,,,,,,,,,,,,,,,,,,,,,,,,,,,,,,,,,,,,,,,,,,,,,,,,,,,,,,,,,,,f,1,0.472874879837,None,0,,,,,None,None,,,,,,,,,,,,,,,,,,,1,2,4,60.061145088560146,Dissertation,2018_Jul_18_1902,2,
,,1,,,Verdadero,Falso,j,B,congruent_right,Amalia puso el jamón que sus hermanos dejaron en los platos en el refrigerador después de que comieron,1,1,0,0,j,0,34,Los hermanos ordenaron la mesa después de comer. ,,,,,,,,,,,,,,,,,,,,,,,,,0,0,0,0,0,1,1,13,,,,,,,,,,,,,,,,0.866526842117,0.809916973114,0.866526842117,0.43642115593,0.355084180832,1.30294799805,0.451052904129,0.373752117157,1.75400090218,0.400274038315,0.319689035416,2.15427494049,0.401450872421,0.321671009064,2.55572581291,0.349321126938,0.270766019821,2.90504693985,0.369819879532,0.287981033325,3.27486681938,0.382166147232,0.285660028458,3.65703296661,0.402705907822,0.338398218155,4.05973887444,0.40157699585,0.323929071426,4.46131587029,0.415529966354,0.317040920258,4.87684583664,0.336488008499,0.271956920624,5.21333384514,0.80136013031,0.718338012695,6.01469397545,0.382755041122,0.318230867386,6.39744901657,,,,0.403747797012,0.335620164871,6.80119681358,0.484038114548,0.406390190125,7.28523492813,,,,,j,1,0.405236959457,j,1,4.41772699356,,,,None,None,0.34978890419,0.27116894722,7.63502383232,0.302561998367,0.234891891479,7.93758583069,,,,,,,,,,,,,1,2,4,60.061145088560146,Dissertation,2018_Jul_18_1902,2,
,,1,,,Verdadero,Falso,f,A,congruent_right,a,0,0,0,0,j,0,308,a,,,,,,,,,,,,,,,,,,,,,,,,,0,0,0,0,0,2,2,67,,,,,,,,,,,,,,,,,,,,,,,,,,,,,,,,,,,,,,,,,,,,,,,,,,,,,,,,,,,,,,,,,,,,,,,j,1,0.423851966858,None,0,,,,,None,None,,,,,,,,,,,,,,,,,,,1,2,4,60.061145088560146,Dissertation,2018_Jul_18_1902,2,
,,0,,,Verdadero,Falso,f,B,single_right,Cuando los amigos tienen una fiesta todos toman vino o cerveza,0,0,0,1,j,0,242,Mis amigos no toman whisky en las fiestas.,,,,,,,,,,,,,,,,,,,,,,,,,0,0,0,0,0,3,3,41,,,,,,,,,,,,,,,,0.651435852051,0.591705083847,0.651435852051,0.333568096161,0.269457817078,0.985003948212,0.350165843964,0.285689115524,1.33516979218,0.268005132675,0.220510005951,1.60317492485,0.552224874496,0.506273984909,2.15539979935,0.367422103882,0.304311037064,2.52282190323,0.418468952179,0.35574388504,2.94129085541,0.417272090912,0.354855060577,3.35856294632,0.401077032089,0.354913949966,3.75963997841,0.468513965607,0.405600070953,4.22815394402,0.433501005173,0.372602939606,4.66165494919,,,,,,,,,,,,,,,,,,,,,,,j,1,0.455797195435,f,1,4.03265595436,,,,None,None,,,,,,,,,,,,,,,,,,,1,2,4,60.061145088560146,Dissertation,2018_Jul_18_1902,2,
,,0,,,Verdadero,Falso,f,B,single_right,La casa de Enrique le quedó muy limpia antes de su fiesta,0,0,0,1,j,0,246,Enrique limpió la casa antes de recibir a los invitados.,,,,,,,,,,,,,,,,,,,,,,,,,0,0,0,0,0,4,4,45,,,,,,,,,,,,,,,,0.598657131195,0.562655925751,0.598657131195,0.4532289505,0.406890153885,1.0518860817,0.418086051941,0.355937004089,1.46997213364,0.382622003555,0.318590164185,1.85259413719,0.484737873077,0.435801029205,2.33733201027,0.369198083878,0.323197841644,2.70653009415,0.35022187233,0.287839174271,3.05675196648,0.435441017151,0.371731042862,3.49219298363,0.550848960876,0.485780000687,4.0430419445,0.635985136032,0.573418140411,4.67902708054,0.466864824295,0.421110153198,5.14589190483,0.317630052567,0.271672964096,5.4635219574,,,,,,,,,,,,,,,,,,,,j,1,0.773160219193,f,1,2.32205104828,,,,None,None,,,,,,,,,,,,,,,,,,,1,2,4,60.061145088560146,Dissertation,2018_Jul_18_1902,2,
,,1,,,Verdadero,Falso,f,B,congruent_right,En el salón de conciertos resonaba la música de la banda ,0,0,0,0,j,0,249,Se podía escuchar la música en todo el salón.,,,,,,,,,,,,,,,,,,,,,,,,,0,0,0,0,0,5,5,48,,,,,,,,,,,,,,,,0.553098917007,0.523175954819,0.553098917007,0.384114027023,0.338756799698,0.937212944031,0.350306034088,0.273303985596,1.28751897812,0.368268966675,0.322053909302,1.65578794479,0.316994905472,0.27245092392,1.97278285027,0.368102073669,0.304538011551,2.34088492393,0.415834903717,0.370220899582,2.75671982765,0.484642028809,0.435803890228,3.24136185646,0.302931070328,0.255640983582,3.54429292679,0.366945981979,0.32127404213,3.91123890877,0.366636037827,0.318899154663,4.27787494659,,,,,,,,,,,,,,,,,,,,,,,j,1,0.384848833084,f,1,2.11098694801,,,,None,None,,,,,,,,,,,,,,,,,,,1,2,4,60.061145088560146,Dissertation,2018_Jul_18_1902,2,
,,1,,,Verdadero,Falso,f,B,congruent_right,Después de hacer la tarea Pilar volvió a jugar videojuegos,0,0,0,0,j,0,241,A Pilar le gustan los videojuegos.,,,,,,,,,,,,,,,,,,,,,,,,,0,0,0,0,0,6,6,40,,,,,,,,,,,,,,,,0.652995824814,0.620236873627,0.652995824814,0.365447998047,0.31801700592,1.01844382286,0.484941005707,0.435960054398,1.50338482857,0.419368028641,0.37112402916,1.92275285721,0.367978096008,0.307236909866,2.29073095322,0.400949001312,0.355118989944,2.69167995453,0.282345056534,0.219564914703,2.97402501106,0.470019817352,0.41973900795,3.44404482841,0.366563081741,0.305444002151,3.81060791016,0.333281993866,0.285793066025,4.14388990402,,,,,,,,,,,,,,,,,,,,,,,,,,j,1,1.2216360569,f,1,1.58847904205,,,,None,None,,,,,,,,,,,,,,,,,,,1,2,4,60.061145088560146,Dissertation,2018_Jul_18_1902,2,
,,0,,,Verdadero,Falso,j,B,incongruent_right,Mientras el padre rezaba la biblia antigua se le cayó al piso,0,1,1,0,j,0,107,El padre no es muy religioso.,,,,,,,,,,,,,,,,,,,,,,,,,0,0,0,0,0,7,7,23,,,,,,,,,,,,,,,,0.400436878204,0.364421129227,0.400436878204,0.351078033447,0.285030126572,0.751514911652,0.299880027771,0.254410028458,1.05139493942,0.316504955292,0.252156019211,1.36789989471,0.302463054657,0.255167007446,1.67036294937,0.316948890686,0.254746198654,1.98731184006,0.350183010101,0.285378932953,2.33749485016,0.418703079224,0.371507883072,2.75619792938,0.401428937912,0.355349063873,3.15762686729,0.300585985184,0.237651824951,3.45821285248,0.382599115372,0.317625999451,3.84081196785,0.352232933044,0.304909944534,4.19304490089,,,,,,,,,,,,,,,,,,,,j,1,0.572613954544,j,1,2.45999002457,,,,None,None,,,,,,,,,,,,,,,,,,,1,2,4,60.061145088560146,Dissertation,2018_Jul_18_1902,2,
,,1,,,Verdadero,Falso,j,B,congruent_left,Justo cuando aparcaron el carro viejo volvió a fallar,1,1,0,0,f,0,23,El carro está en una condición perfecta.,,,,,,,,,,,,,,,,,,,,,,,,,0,0,0,0,0,8,8,2,,,,,,,,,,,,,,,,0.616986989975,0.575974941254,0.616986989975,0.318479061127,0.272833108902,0.935466051102,0.267720937729,0.222625017166,1.20318698883,0.284018993378,0.23868393898,1.48720598221,0.450566053391,0.405774831772,1.9377720356,0.317461013794,0.272118091583,2.25523304939,0.467969894409,0.422030925751,2.7232029438,0.384324073792,0.339913845062,3.10752701759,0.384948968887,0.32173705101,3.49247598648,,,,,,,,,,,,,,,,,,,,,,,,,,,,,f,1,0.806435108185,j,1,1.75916790962,,,,None,None,,,,,,,,,,,,,,,,,,,1,2,4,60.061145088560146,Dissertation,2018_Jul_18_1902,2,
,,0,,,Verdadero,Falso,j,B,single_right,Subí la escalera para irme a dormir,0,0,0,1,j,0,250,Mi cuarto de dormir está en la planta baja.,,,,,,,,,,,,,,,,,,,,,,,,,0,0,0,0,0,9,9,49,,,,,,,,,,,,,,,,0.582883119583,0.536741018295,0.582883119583,0.283215999603,0.236930847168,0.866099119186,0.302342891693,0.254039049149,1.16844201088,0.334007978439,0.284497022629,1.50244998932,0.301359176636,0.255616188049,1.80380916595,0.333632946014,0.272526025772,2.13744211197,0.284812927246,0.238353013992,2.42225503922,,,,,,,,,,,,,,,,,,,,,,,,,,,,,,,,,,,j,1,0.585717916489,j,1,2.74553704262,,,,None,None,,,,,,,,,,,,,,,,,,,1,2,4,60.061145088560146,Dissertation,2018_Jul_18_1902,2,
,,1,,,Verdadero,Falso,f,B,congruent_left,"Entre los amigos en la fiesta de Luis estaban sus hermanos, Marisa y Germán ",0,0,0,0,f,0,255,María y Germán son amigos de Luis.,,,,,,,,,,,,,,,,,,,,,,,,,0,0,0,0,0,10,10,54,,,,,,,,,,,,,,,,0.500726938248,0.461681127548,0.500726938248,0.35182094574,0.287783145905,0.852547883987,0.300825119019,0.238322019577,1.15337300301,0.301654100418,0.240865945816,1.45502710342,0.417838811874,0.336199045181,1.8728659153,0.283440113068,0.221320867538,2.15630602837,0.301132917404,0.241113901138,2.45743894577,0.333861112595,0.271880865097,2.79130005836,0.350678920746,0.287951946259,3.14197897911,0.334537029266,0.269170045853,3.47651600838,0.282950878143,0.218075990677,3.75946688652,0.468623161316,0.420616865158,4.22809004784,0.719876050949,0.656998157501,4.94796609879,0.635451793671,0.553749084473,5.58341789246,,,,,,,,,,,,,,f,1,0.553586959839,f,1,4.89670491219,,,,None,None,,,,,,,,,,,,,,,,,,,1,2,4,60.061145088560146,Dissertation,2018_Jul_18_1902,2,
,,0,,,Verdadero,Falso,j,B,incongruent_left,Antes de comer el pastel los niños cantaron "Cumpleaños Feliz",0,0,1,0,f,0,239,El pastel era para el final del curso.,,,,,,,,,,,,,,,,,,,,,,,,,0,0,0,0,0,11,11,38,,,,,,,,,,,,,,,,0.700870037079,0.665276050568,0.700870037079,0.40073299408,0.35645699501,1.10160303116,0.367974996567,0.303746938705,1.46957802773,0.366496086121,0.319983959198,1.83607411385,0.36917090416,0.322871923447,2.20524501801,0.384319067001,0.321865081787,2.58956408501,0.401147842407,0.340945959091,2.99071192741,0.400121212006,0.33386182785,3.39083313942,0.601705789566,0.538295030594,3.99253892899,1.05309605598,0.990857124329,5.04563498497,,,,,,,,,,,,,,,,,,,,,,,,,,f,1,0.938870191574,j,1,3.40788698196,,,,None,None,,,,,,,,,,,,,,,,,,,1,2,4,60.061145088560146,Dissertation,2018_Jul_18_1902,2,
,,1,,,Verdadero,Falso,f,A,congruent_left,a,0,0,0,0,f,0,303,a,,,,,,,,,,,,,,,,,,,,,,,,,0,0,0,0,0,12,12,62,,,,,,,,,,,,,,,,,,,,,,,,,,,,,,,,,,,,,,,,,,,,,,,,,,,,,,,,,,,,,,,,,,,,,,,f,1,0.736571073532,None,0,,,,,None,None,,,,,,,,,,,,,,,,,,,1,2,4,60.061145088560146,Dissertation,2018_Jul_18_1902,2,
,,0,,,Verdadero,Falso,f,A,single_right,a,0,0,0,1,j,0,306,a,,,,,,,,,,,,,,,,,,,,,,,,,0,0,0,0,0,13,13,65,,,,,,,,,,,,,,,,,,,,,,,,,,,,,,,,,,,,,,,,,,,,,,,,,,,,,,,,,,,,,,,,,,,,,,,j,1,0.519340991974,None,0,,,,,None,None,,,,,,,,,,,,,,,,,,,1,2,4,60.061145088560146,Dissertation,2018_Jul_18_1902,2,
,,1,,,Verdadero,Falso,j,B,congruent_right,Mientras el novio pagaba el diamante se le cayó al piso,1,1,0,0,j,0,26,La esposa dejó caer el diamante al piso.,,,,,,,,,,,,,,,,,,,,,,,,,0,0,0,0,0,14,14,5,,,,,,,,,,,,,,,,0.617207050323,0.581986904144,0.617207050323,0.367789030075,0.306560993195,0.984996080399,0.267729997635,0.222282171249,1.25272607803,0.367358922958,0.323056221008,1.62008500099,0.400924921036,0.335338115692,2.02100992203,0.39976811409,0.352020025253,2.42077803612,0.452399969101,0.405462026596,2.87317800522,0.400680065155,0.336199045181,3.27385807037,0.351738929749,0.30663895607,3.62559700012,0.416851043701,0.353322982788,4.04244804382,0.383739948273,0.3354408741,4.4261879921,,,,,,,,,,,,,,,,,,,,,,,j,1,0.388514995575,j,1,2.5734269619,,,,None,None,,,,,,,,,,,,,,,,,,,1,2,4,60.061145088560146,Dissertation,2018_Jul_18_1902,2,
,,0,,,Verdadero,Falso,j,B,incongruent_left,Los novios montaron la sofá que su amigo les dejó en la sala de su nuevo piso ,0,1,1,0,f,0,118,Los novios compró la sofá nueva.,,,,,,,,,,,,,,,,,,,,,,,,,0,0,0,0,0,15,15,28,,,,,,,,,,,,,,,,0.651517152786,0.601099014282,0.651517152786,0.484378814697,0.421616077423,1.13589596748,0.432660102844,0.368314027786,1.56855607033,0.417798042297,0.349406003952,1.98635411263,0.368325948715,0.305109024048,2.35468006134,0.318613052368,0.254353046417,2.67329311371,1.05324983597,0.98733496666,3.72654294968,0.534100055695,0.457364082336,4.26064300537,0.451715946198,0.368902921677,4.71235895157,0.317065000534,0.256086111069,5.0294239521,0.316815137863,0.235165119171,5.34623908997,0.434998989105,0.371150016785,5.78123807907,0.384410858154,0.321337938309,6.16564893723,0.351936101913,0.272881031036,6.51758503914,,,,0.333956003189,0.271681070328,6.85154104233,0.317528963089,0.256689071655,7.16907000542,,,,,f,1,0.888094186783,j,1,5.55054497719,,,,None,None,0.382275104523,0.316351890564,7.55134510994,,,,,,,,,,,,,,,,1,2,4,60.061145088560146,Dissertation,2018_Jul_18_1902,2,
,,0,,,Verdadero,Falso,j,B,single_left,Cuando era niño mi papá quería ser arquitecto,0,0,0,1,f,0,244,Mi papá quería ser mecánico cuando era menor.,,,,,,,,,,,,,,,,,,,,,,,,,0,0,0,0,0,16,16,43,,,,,,,,,,,,,,,,0.569631099701,0.539453029633,0.569631099701,0.367684841156,0.322444915771,0.937315940857,0.400720119476,0.35703086853,1.33803606033,0.350075960159,0.304105997086,1.68811202049,0.368479013443,0.307193994522,2.05659103394,0.400496006012,0.350812911987,2.45708703995,0.401964902878,0.354248046875,2.85905194283,0.300739049911,0.251128911972,3.15979099274,,,,,,,,,,,,,,,,,,,,,,,,,,,,,,,,f,1,0.669491052628,j,1,3.83208298683,,,,None,None,,,,,,,,,,,,,,,,,,,1,2,4,60.061145088560146,Dissertation,2018_Jul_18_1902,2,
,,0,,,Verdadero,Falso,f,B,incongruent_right,Cuando el escultor terminó la obra tenía tres metros  de altura,1,1,1,0,j,1,29,La estatua era muy alta.,,,,,,,,,,,,,,,,,,,,,,,,,0,0,0,0,0,17,17,8,,,,,,,,,,,,,,,,0.533529043198,0.498192071915,0.533529043198,0.334483861923,0.272016048431,0.868012905121,0.283901929855,0.219549894333,1.15191483498,0.332779169083,0.252473831177,1.48469400406,0.519467830658,0.469596147537,2.00416183472,0.284123182297,0.222168922424,2.28828501701,0.400409936905,0.337194919586,2.68869495392,0.33540391922,0.271620035172,3.02409887314,0.333995103836,0.271200180054,3.35809397697,0.332630872726,0.270822048187,3.6907248497,0.469841003418,0.406089067459,4.16056585312,,,,,,,,,,,,,,,,,,,,,,,j,1,0.606357812881,f,1,1.52542304993,,,,None,None,,,,,,,,,,,,,,,,,,,1,2,4,60.061145088560146,Dissertation,2018_Jul_18_1902,2,
,,1,,,Verdadero,Falso,j,B,congruent_left,La arquitecta puso los planos que sus compañeros le dejaron en su oficina encima de la mesa para verlos bien,1,1,0,0,f,0,35,La arquitecta sacó los planos de su bolsa.,,,,,,,,,,,,,,,,,,,,,,,,,0,0,0,0,0,18,18,14,,,,,,,,,,,,,,,,0.550544977188,0.483939170837,0.550544977188,0.283756971359,0.204971790314,0.834301948547,0.368188142776,0.289883136749,1.20249009132,0.350870847702,0.272118091583,1.55336093903,0.234181165695,0.151818990707,1.78754210472,0.466565847397,0.387302875519,2.25410795212,0.301753044128,0.220968008041,2.55586099625,0.384430885315,0.305660963058,2.94029188156,0.28443312645,0.204622030258,3.22472500801,0.333693981171,0.25474190712,3.55841898918,0.317404031754,0.239384889603,3.87582302094,0.368552923203,0.285403013229,4.24437594414,0.283878087997,0.20099401474,4.52825403214,0.283962965012,0.205237150192,4.81221699715,,,,0.333127975464,0.254973888397,5.14534497261,0.234975099564,0.155698060989,5.38032007217,,,,,f,1,0.837747812271,j,1,2.43971896172,,,,None,None,0.250206947327,0.150364160538,5.6305270195,0.201366901398,0.100779771805,5.8318939209,0.366847038269,0.286448001862,6.19874095917,0.819031000137,0.735965013504,7.0177719593,,,,,,,1,2,4,60.061145088560146,Dissertation,2018_Jul_18_1902,2,
,,0,,,Verdadero,Falso,j,B,incongruent_right,El grupo musical que tocó en el salón de conciertos era muy bueno,0,0,1,0,j,0,233,El grupo no tocaba bien.,,,,,,,,,,,,,,,,,,,,,,,,,0,0,0,0,0,19,19,32,,,,,,,,,,,,,,,,0.601957082748,0.562819004059,0.601957082748,0.351955890656,0.288529872894,0.953912973404,0.299503087997,0.220690965652,1.2534160614,0.351156949997,0.283674001694,1.6045730114,0.384361982346,0.338001966476,1.98893499374,0.334836959839,0.271266937256,2.32377195358,0.35129404068,0.288017034531,2.67506599426,0.366657972336,0.305545091629,3.0417239666,0.551937103271,0.50471496582,3.59366106987,0.317262887955,0.270499229431,3.91092395782,0.301632165909,0.238523006439,4.21255612373,0.41740489006,0.356250047684,4.62996101379,0.334191083908,0.270166158676,4.9641520977,,,,,,,,,,,,,,,,,j,1,0.524992227554,j,1,1.52630209923,,,,None,None,,,,,,,,,,,,,,,,,,,1,2,4,60.061145088560146,Dissertation,2018_Jul_18_1902,2,
,,0,,,Verdadero,Falso,j,B,incongruent_left,Los estudiantes metieron la tarea que la maestra les dio en la clase en sus bolsas antes de irse,1,1,1,0,f,1,40,La maestra se quedó con la tarea de los alumnos.,,,,,,,,,,,,,,,,,,,,,,,,,0,0,0,0,0,20,20,19,,,,,,,,,,,,,,,,0.500572919846,0.449480056763,0.500572919846,0.300986051559,0.238087892532,0.801558971405,0.366613864899,0.304871082306,1.1681728363,0.300013065338,0.218325138092,1.46818590164,0.302438020706,0.238236904144,1.77062392235,0.284461021423,0.218960046768,2.05508494377,0.534113883972,0.471655130386,2.58919882774,0.333739995956,0.2544901371,2.9229388237,0.416640043259,0.335985898972,3.33957886696,0.436037063599,0.368230104446,3.77561593056,0.301138877869,0.23816204071,4.07675480843,0.299467086792,0.220267057419,4.37622189522,0.385499954224,0.288202047348,4.76172184944,0.284250974655,0.204396009445,5.0459728241,,,,0.4162940979,0.351886987686,5.462266922,0.268059015274,0.203561067581,5.73032593727,,,,,f,1,0.55361700058,j,1,2.1781899929,,,,None,None,0.352035045624,0.288693904877,6.08236098289,0.516595840454,0.451599836349,6.59895682335,0.402619123459,0.323809862137,7.00157594681,,,,,,,,,,1,2,4,60.061145088560146,Dissertation,2018_Jul_18_1902,2,
,,0,,,Verdadero,Falso,f,B,incongruent_right,Sandra acomodó las novelas que Antonia dejó en el librero cuando las encontró,0,1,1,0,j,0,115,Sandra limpió el lío de libros de Antonia.,,,,,,,,,,,,,,,,,,,,,,,,,0,0,0,0,0,21,21,27,,,,,,,,,,,,,,,,0.568626880646,0.528315067291,0.568626880646,0.335325956345,0.239359855652,0.90395283699,0.31658411026,0.254886865616,1.22053694725,0.319061994553,0.255380153656,1.5395989418,0.317198991776,0.251612901688,1.85679793358,0.334218978882,0.271620988846,2.19101691246,0.367866039276,0.305480003357,2.55888295174,0.350985050201,0.284703969955,2.90986800194,0.315794944763,0.25391292572,3.2256629467,0.585516929626,0.521589040756,3.81117987633,0.450293064117,0.385382175446,4.26147294044,0.635040998459,0.553982019424,4.8965139389,0.402661085129,0.32240319252,5.29917502403,,,,,,,,,,,,,,,,,j,1,0.536983013153,f,1,3.78253602982,,,,None,None,,,,,,,,,,,,,,,,,,,1,2,4,60.061145088560146,Dissertation,2018_Jul_18_1902,2,
,,0,,,Verdadero,Falso,j,B,incongruent_left,Después de que salieron la casa se quedó muy limpia,0,1,1,0,f,0,102,Todavía deben limpiar la casa.,,,,,,,,,,,,,,,,,,,,,,,,,0,0,0,0,0,22,22,20,,,,,,,,,,,,,,,,0.600434064865,0.570547103882,0.600434064865,0.452022075653,0.391503810883,1.05245614052,0.366533994675,0.304521083832,1.41899013519,0.468597888947,0.407507181168,1.88758802414,0.315763950348,0.270457983017,2.20335197449,0.28382897377,0.235954999924,2.48718094826,0.38628411293,0.338440895081,2.87346506119,0.701690912247,0.656349897385,3.57515597343,0.535039186478,0.473202943802,4.11019515991,0.317001819611,0.271143913269,4.42719697952,,,,,,,,,,,,,,,,,,,,,,,,,,f,1,0.655346870422,j,1,1.89363312721,,,,None,None,,,,,,,,,,,,,,,,,,,1,2,4,60.061145088560146,Dissertation,2018_Jul_18_1902,2,
,,0,,,Verdadero,Falso,f,A,incongruent_right,a,0,0,1,0,j,0,315,a,,,,,,,,,,,,,,,,,,,,,,,,,0,0,0,0,0,23,23,74,,,,,,,,,,,,,,,,,,,,,,,,,,,,,,,,,,,,,,,,,,,,,,,,,,,,,,,,,,,,,,,,,,,,,,,j,1,0.686860084534,None,0,,,,,None,None,,,,,,,,,,,,,,,,,,,1,2,4,60.061145088560146,Dissertation,2018_Jul_18_1902,2,
,,0,,,Verdadero,Falso,j,B,incongruent_right,Mientras el maestro tocaba el violín resonaba por todo el salón,1,1,1,0,j,1,25,El maestro tocaba el piano.,,,,,,,,,,,,,,,,,,,,,,,,,0,0,0,0,0,24,24,4,,,,,,,,,,,,,,,,0.567523002625,0.531944990158,0.567523002625,0.401197910309,0.34046792984,0.968720912933,0.334053993225,0.271677970886,1.30277490616,0.216751098633,0.156049013138,1.51952600479,0.366061925888,0.302360057831,1.88558793068,0.385228872299,0.336665153503,2.27081680298,0.435318231583,0.388295888901,2.70613503456,0.317816972733,0.255298137665,3.02395200729,0.316437959671,0.256764888763,3.34038996696,0.335227966309,0.271542072296,3.67561793327,0.283771038055,0.238275051117,3.95938897133,,,,,,,,,,,,,,,,,,,,,,,j,1,0.486070871353,j,1,1.57446503639,,,,None,None,,,,,,,,,,,,,,,,,,,1,2,4,60.061145088560146,Dissertation,2018_Jul_18_1902,2,
,,1,,,Verdadero,Falso,j,B,congruent_right,Después de que la arquitecta empezó los planos se volvieron más sencillos,1,1,0,0,j,0,22,Los planos siempre fueron muy sencillos.,,,,,,,,,,,,,,,,,,,,,,,,,0,0,0,0,0,25,25,1,,,,,,,,,,,,,,,,0.718015193939,0.677651882172,0.718015193939,0.351125955582,0.288313865662,1.06914114952,0.29999089241,0.237133979797,1.36913204193,0.299749135971,0.203779935837,1.6688811779,0.284484863281,0.219066858292,1.95336604118,0.267347097397,0.201890945435,2.22071313858,0.434963941574,0.371098995209,2.65567708015,0.434974908829,0.371399879456,3.09065198898,0.36629319191,0.30411696434,3.45694518089,0.35310292244,0.305433988571,3.81004810333,0.316776037216,0.253801107407,4.12682414055,0.418011903763,0.357484102249,4.54483604431,,,,,,,,,,,,,,,,,,,,j,1,0.790384054184,j,1,1.75513601303,,,,None,None,,,,,,,,,,,,,,,,,,,1,2,4,60.061145088560146,Dissertation,2018_Jul_18_1902,2,
,,0,,,Verdadero,Falso,f,A,single_left,a,0,0,0,1,f,0,309,a,,,,,,,,,,,,,,,,,,,,,,,,,0,0,0,0,0,26,26,68,,,,,,,,,,,,,,,,,,,,,,,,,,,,,,,,,,,,,,,,,,,,,,,,,,,,,,,,,,,,,,,,,,,,,,,f,1,0.670389175415,None,0,,,,,None,None,,,,,,,,,,,,,,,,,,,1,2,4,60.061145088560146,Dissertation,2018_Jul_18_1902,2,
,,1,,,Verdadero,Falso,j,B,congruent_left,Después de pintar su casa Julieta tuvo que limpiar,0,0,0,0,f,0,243,Las paredes de la casa están descoloridas. ,,,,,,,,,,,,,,,,,,,,,,,,,0,0,0,0,0,27,27,42,,,,,,,,,,,,,,,,0.582377910614,0.534479141235,0.582377910614,0.318382024765,0.270927906036,0.900759935379,0.301311969757,0.25691986084,1.20207190514,0.333106040955,0.286921024323,1.53517794609,0.301648855209,0.254241943359,1.8368268013,0.268100976944,0.206312894821,2.10492777824,0.28359413147,0.220180988312,2.38852190971,0.451410055161,0.405580997467,2.83993196487,0.300963878632,0.25657582283,3.14089584351,,,,,,,,,,,,,,,,,,,,,,,,,,,,,f,1,0.607438087463,j,1,3.19586396217,,,,None,None,,,,,,,,,,,,,,,,,,,1,2,4,60.061145088560146,Dissertation,2018_Jul_18_1902,2,
,,0,,,Verdadero,Falso,f,B,incongruent_left,La empleada guardó los documentos que recibió en el buzón en una carpeta después de revisarlos,1,1,1,0,f,1,32,La empleada revisó los documentos.,,,,,,,,,,,,,,,,,,,,,,,,,0,0,0,0,0,28,28,11,,,,,,,,,,,,,,,,0.551425933838,0.500864982605,0.551425933838,0.350063085556,0.268978118896,0.901489019394,0.333975076675,0.271425008774,1.23546409607,0.333724975586,0.267868041992,1.56918907166,0.26696896553,0.185256958008,1.83615803719,0.319000005722,0.238421916962,2.15515804291,0.368093967438,0.305637836456,2.52325201035,0.332360982895,0.235803842545,2.85561299324,0.419691085815,0.339794158936,3.27530407906,0.467216968536,0.390558004379,3.74252104759,0.466933012009,0.403685808182,4.2094540596,0.383615016937,0.319925069809,4.59306907654,0.453207969666,0.389120817184,5.0462770462,0.40080499649,0.31889796257,5.44708204269,,,,0.301320075989,0.222761869431,5.74840211868,0.266971826553,0.189977884293,6.01537394524,,,,,f,1,0.556350231171,f,1,2.33854389191,,,,None,None,,,,,,,,,,,,,,,,,,,1,2,4,60.061145088560146,Dissertation,2018_Jul_18_1902,2,
,,0,,,Verdadero,Falso,f,A,single_left,a,0,0,0,1,f,0,314,a,,,,,,,,,,,,,,,,,,,,,,,,,0,0,0,0,0,29,29,73,,,,,,,,,,,,,,,,,,,,,,,,,,,,,,,,,,,,,,,,,,,,,,,,,,,,,,,,,,,,,,,,,,,,,,,f,1,0.570417881012,None,0,,,,,None,None,,,,,,,,,,,,,,,,,,,1,2,4,60.061145088560146,Dissertation,2018_Jul_18_1902,2,
,,0,,,Verdadero,Falso,f,B,incongruent_right,Después de que corrí el maratón no me parecía tan imposible,1,1,1,0,j,1,21,Me sentí mejor corriendo el maratón que anticipaba.,,,,,,,,,,,,,,,,,,,,,,,,,0,0,0,0,0,30,30,0,,,,,,,,,,,,,,,,0.615976810455,0.579546928406,0.615976810455,0.385702133179,0.338057994843,1.00167894363,0.382399082184,0.334718942642,1.38407802582,0.302536010742,0.25416302681,1.68661403656,0.401126861572,0.357497930527,2.08774089813,0.384670972824,0.323291778564,2.47241187096,0.317244052887,0.271461009979,2.78965592384,0.71867108345,0.672950983047,3.50832700729,0.617146015167,0.567619085312,4.12547302246,0.452842950821,0.405732154846,4.57831597328,0.367660999298,0.306316137314,4.94597697258,,,,,,,,,,,,,,,,,,,,,,,j,1,0.488064050674,f,1,9.36106181145,,,,None,None,,,,,,,,,,,,,,,,,,,1,2,4,60.061145088560146,Dissertation,2018_Jul_18_1902,2,
,,0,,,Verdadero,Falso,f,B,single_left,Los pasteles en la cocina de los Menéndez son para la fiesta de cumpleaños,0,0,0,1,f,0,232,Los Menéndez van a una fiesta.,,,,,,,,,,,,,,,,,,,,,,,,,0,0,0,0,0,31,31,31,,,,,,,,,,,,,,,,0.550606966019,0.507943868637,0.550606966019,0.317410945892,0.251411914825,0.868017911911,0.332375049591,0.269576787949,1.2003929615,0.369318962097,0.30414390564,1.5697119236,0.268054962158,0.20441699028,1.83776688576,0.266779184341,0.204192876816,2.1045460701,0.332976818085,0.269773960114,2.43752288818,0.250427007675,0.184455156326,2.68794989586,0.386080026627,0.318550109863,3.07402992249,0.382316112518,0.318243026733,3.456346035,0.353170871735,0.288738012314,3.80951690674,0.383090019226,0.320358037949,4.19260692596,1.0188331604,0.953202009201,5.21144008636,0.403100967407,0.355581998825,5.61454105377,,,,,,,,,,,,,,f,1,0.507323980331,f,1,2.22660303116,,,,None,None,,,,,,,,,,,,,,,,,,,1,2,4,60.061145088560146,Dissertation,2018_Jul_18_1902,2,
,,0,,,Verdadero,Falso,f,B,single_right,Después de preparar el desayuno Pedro limpia bien la cocina,0,0,0,1,j,0,238,Pedro no deja la cocina sucia.,,,,,,,,,,,,,,,,,,,,,,,,,0,0,0,0,0,32,32,37,,,,,,,,,,,,,,,,0.567317008972,0.532673835754,0.567317008972,0.367785930634,0.288259029388,0.935102939606,0.283586978912,0.238295078278,1.21868991852,0.31750702858,0.255200862885,1.5361969471,0.367511987686,0.306360006332,1.90370893478,0.299992084503,0.253504037857,2.20370101929,0.352649927139,0.305700063705,2.55635094643,0.400350093842,0.339488983154,2.95670104027,0.399574995041,0.352489948273,3.35627603531,0.385737895966,0.33761715889,3.74201393127,,,,,,,,,,,,,,,,,,,,,,,,,,j,1,0.656423807144,f,1,2.74516510963,,,,None,None,,,,,,,,,,,,,,,,,,,1,2,4,60.061145088560146,Dissertation,2018_Jul_18_1902,2,
,,1,,,Verdadero,Falso,j,B,congruent_right,Cuando Dora compró la comida se le quedó en el mercado,1,1,0,0,j,0,30,Dora salió del mercado con la comida.,,,,,,,,,,,,,,,,,,,,,,,,,0,0,0,0,0,33,33,9,,,,,,,,,,,,,,,,0.58619594574,0.554005146027,0.58619594574,0.33433508873,0.268006086349,0.92053103447,0.28367805481,0.239223957062,1.20420908928,0.318086862564,0.255167007446,1.52229595184,0.30074095726,0.238353967667,1.8230369091,0.367375135422,0.305178880692,2.19041204453,0.29945397377,0.237208127975,2.4898660183,0.302525043488,0.255336999893,2.79239106178,0.350999832153,0.305097103119,3.14339089394,0.250130176544,0.187502861023,3.39352107048,0.366279840469,0.318138122559,3.75980091095,,,,,,,,,,,,,,,,,,,,,,,j,1,0.550968885422,j,1,1.74265384674,,,,None,None,,,,,,,,,,,,,,,,,,,1,2,4,60.061145088560146,Dissertation,2018_Jul_18_1902,2,
,,0,,,Verdadero,Falso,f,B,incongruent_left,Los planos del arquitecto tienen un diseño muy creativo ,0,0,1,0,f,0,251,El arquitecto es muy bueno y creativo.,,,,,,,,,,,,,,,,,,,,,,,,,0,0,0,0,0,34,34,50,,,,,,,,,,,,,,,,0.534409046173,0.502300024033,0.534409046173,0.284119129181,0.23925614357,0.818528175354,0.233937978745,0.18963098526,1.0524661541,0.266704797745,0.217219114304,1.31917095184,0.217454195023,0.170315027237,1.53662514687,0.416734933853,0.353797912598,1.95336008072,0.235739946365,0.189386129379,2.18910002708,0.366374015808,0.305068969727,2.55547404289,0.184718132019,0.137712955475,2.74019217491,,,,,,,,,,,,,,,,,,,,,,,,,,,,,f,1,0.63769698143,f,1,1.64082694054,,,,None,None,,,,,,,,,,,,,,,,,,,1,2,4,60.061145088560146,Dissertation,2018_Jul_18_1902,2,
,,1,,,Verdadero,Falso,f,A,congruent_right,a,0,0,0,0,j,0,304,a,,,,,,,,,,,,,,,,,,,,,,,,,0,0,0,0,0,35,35,63,,,,,,,,,,,,,,,,,,,,,,,,,,,,,,,,,,,,,,,,,,,,,,,,,,,,,,,,,,,,,,,,,,,,,,,j,1,0.65845489502,None,0,,,,,None,None,,,,,,,,,,,,,,,,,,,1,2,4,60.061145088560146,Dissertation,2018_Jul_18_1902,2,
,,1,,,Verdadero,Falso,f,A,congruent_left,a,0,0,0,0,f,0,311,a,,,,,,,,,,,,,,,,,,,,,,,,,0,0,0,0,0,36,36,70,,,,,,,,,,,,,,,,,,,,,,,,,,,,,,,,,,,,,,,,,,,,,,,,,,,,,,,,,,,,,,,,,,,,,,,f,1,0.436949968338,None,0,,,,,None,None,,,,,,,,,,,,,,,,,,,1,2,4,60.061145088560146,Dissertation,2018_Jul_18_1902,2,
,,0,,,Verdadero,Falso,j,B,incongruent_right,Toni dejó los zapatos que compró en su cuarto cuando volvió,0,1,1,0,j,0,111,Toni solo compró pantalones.,,,,,,,,,,,,,,,,,,,,,,,,,0,0,0,0,0,37,37,25,,,,,,,,,,,,,,,,0.651845932007,0.613348007202,0.651845932007,0.518592119217,0.472795009613,1.17043805122,0.333806991577,0.27238202095,1.5042450428,0.265955924988,0.201337099075,1.77020096779,0.218241930008,0.169964075089,1.9884428978,0.351594209671,0.288521051407,2.34003710747,0.384782791138,0.335604906082,2.72481989861,0.266086101532,0.205106019974,2.99090600014,0.234517097473,0.189056873322,3.22542309761,0.217613935471,0.154414892197,3.44303703308,0.635225057602,0.574118852615,4.07826209068,,,,,,,,,,,,,,,,,,,,,,,j,1,0.437702178955,j,1,1.70982003212,,,,None,space,,,,,,,,,,,,,18.1513700485,,,,,,1,2,4,60.061145088560146,Dissertation,2018_Jul_18_1902,2,
,,0,,,Verdadero,Falso,f,B,incongruent_left,Antes de que celebraran esa canción no era muy popular ,0,1,1,0,f,0,106,Nadie sabía la canción antes.,,,,,,,,,,,,,,,,,,,,,,,,,0,0,0,0,0,38,38,22,,,,,,,,,,,,,,,,0.649441003799,0.60196185112,0.649441003799,0.235543012619,0.187752008438,0.884984016418,0.217235088348,0.154512882233,1.10221910477,0.217806100845,0.156274080276,1.32002520561,0.249878883362,0.201299190521,1.56990408897,0.268081903458,0.221594810486,1.83798599243,0.332509040833,0.286868095398,2.17049503326,0.201851129532,0.155491828918,2.3723461628,0.317595005035,0.255331993103,2.68994116783,0.23242688179,0.185020923615,2.92236804962,,,,,,,,,,,,,,,,,,,,,,,,,,f,1,0.873224020004,f,1,2.26024699211,,,,None,None,,,,,,,,,,,,,,,,,,,1,2,4,60.061145088560146,Dissertation,2018_Jul_18_1902,2,
,,0,,,Verdadero,Falso,j,B,incongruent_left,Cuando los jardineros se fueron el jardín era el más bonito del barrio,0,1,1,0,f,0,110,Los clientes no se quedaron satisfechos con el jardín.,,,,,,,,,,,,,,,,,,,,,,,,,0,0,0,0,0,39,39,24,,,,,,,,,,,,,,,,0.567155122757,0.510510921478,0.567155122757,0.284333944321,0.220855951309,0.851489067078,0.249817848206,0.186690092087,1.10130691528,0.217821121216,0.154263973236,1.3191280365,0.318227052689,0.251803874969,1.63735508919,0.283584833145,0.221349954605,1.92093992233,0.300858020782,0.237142086029,2.22179794312,0.350902080536,0.289658069611,2.57270002365,0.28408408165,0.221742868423,2.8567841053,0.165491819382,0.0984239578247,3.02227592468,0.335584163666,0.288128852844,3.35786008835,0.267282962799,0.205265045166,3.62514305115,0.250606060028,0.187313079834,3.87574911118,,,,,,,,,,,,,,,,,f,1,0.540134906769,j,1,2.25938820839,,,,None,None,,,,,,,,,,,,,,,,,,,1,2,4,60.061145088560146,Dissertation,2018_Jul_18_1902,2,
,,0,,,Verdadero,Falso,f,B,single_right,Mi tarjeta de crédito se me quedó en casa,0,0,0,1,j,0,254,Tuve que usar efectivo para pagar.,,,,,,,,,,,,,,,,,,,,,,,,,0,0,0,0,0,40,40,53,,,,,,,,,,,,,,,,0.533483028412,0.508291006088,0.533483028412,0.250909805298,0.188147783279,0.78439283371,0.200391054153,0.153297185898,0.984783887863,0.284065008163,0.234016180038,1.26884889603,0.283591032028,0.239049196243,1.55243992805,0.283343076706,0.236783027649,1.83578300476,0.403286933899,0.355772018433,2.23906993866,0.283247947693,0.238116025925,2.52231788635,0.332757949829,0.286962032318,2.85507583618,,,,,,,,,,,,,,,,,,,,,,,,,,,,,j,1,0.572854995728,f,1,1.57702207565,,,,None,None,,,,,,,,,,,,,,,,,,,1,2,4,60.061145088560146,Dissertation,2018_Jul_18_1902,2,
,,0,,,Verdadero,Falso,j,B,single_left,Linda hace un paseo en las montañas todos los sábados,0,0,0,1,f,0,236,A Linda no le gusta la naturaleza.,,,,,,,,,,,,,,,,,,,,,,,,,0,0,0,0,0,41,41,35,,,,,,,,,,,,,,,,0.516863107681,0.481848955154,0.516863107681,0.266074895859,0.204066991806,0.78293800354,0.202245950699,0.138365983963,0.985183954239,0.34903216362,0.269657850266,1.33421611786,0.218206882477,0.167907953262,1.55242300034,0.317013978958,0.249475955963,1.86943697929,0.251533031464,0.204917192459,2.12097001076,0.334582090378,0.268149137497,2.45555210114,0.284199953079,0.238137960434,2.73975205421,0.183851003647,0.134677171707,2.92360305786,,,,,,,,,,,,,,,,,,,,,,,,,,f,1,0.506019830704,j,1,1.40484189987,,,,None,None,,,,,,,,,,,,,,,,,,,1,2,4,60.061145088560146,Dissertation,2018_Jul_18_1902,2,
,,0,,,Verdadero,Falso,f,B,incongruent_left,Mi papá guardó la pintura que hizo en su despacho de trabajo,0,1,1,0,f,0,114,Mi papá se quedó orgulloso de su pintura.,,,,,,,,,,,,,,,,,,,,,,,,,0,0,0,0,0,42,42,26,,,,,,,,,,,,,,,,0.517482995987,0.483891963959,0.517482995987,0.251018047333,0.202120065689,0.76850104332,0.23482298851,0.186273813248,1.00332403183,0.233333110809,0.18571305275,1.23665714264,0.267323970795,0.202702045441,1.50398111343,0.436247825623,0.385594129562,1.94022893906,0.231927156448,0.170980930328,2.1721560955,0.235330820084,0.184437036514,2.40748691559,0.317288160324,0.271013975143,2.72477507591,0.317394971848,0.250246047974,3.04217004776,0.301704883575,0.256135940552,3.34387493134,0.415930986404,0.349556922913,3.75980591774,,,,,,,,,,,,,,,,,,,,f,1,0.583931922913,f,1,4.7805981636,,,,None,None,,,,,,,,,,,,,,,,,,,1,2,4,60.061145088560146,Dissertation,2018_Jul_18_1902,2,
,,0,,,Verdadero,Falso,f,B,single_left,"En la oficina había dos empleados, un periodista y un fotógrafo ",0,0,0,1,f,0,256,Había cuatro personas en la oficina.,,,,,,,,,,,,,,,,,,,,,,,,,0,0,0,0,0,43,43,55,,,,,,,,,,,,,,,,0.516655921936,0.480222225189,0.516655921936,0.234469175339,0.185837030411,0.751125097275,0.251188993454,0.186683893204,1.00231409073,0.234401941299,0.189320087433,1.23671603203,0.266311883926,0.20255112648,1.50302791595,0.319290161133,0.255299091339,1.82231807709,0.601446866989,0.538913965225,2.42376494408,0.417505979538,0.354854106903,2.84127092361,0.416667938232,0.369158983231,3.25793886185,0.369311094284,0.301416873932,3.62724995613,0.382396936417,0.33348608017,4.00964689255,,,,,,,,,,,,,,,,,,,,,,,f,1,0.535656929016,j,0,5.91911005974,,,,None,None,,,,,,,,,,,,,,,,,,,1,2,4,60.061145088560146,Dissertation,2018_Jul_18_1902,2,
,,0,,,Verdadero,Falso,f,B,incongruent_right,El padre metió las copas sucias que su hija dejó en la mesa en el lavaplatos cuando acabó de comer,1,1,1,0,j,1,37,El padre limpió la mesa después de la comida.,,,,,,,,,,,,,,,,,,,,,,,,,0,0,0,0,0,44,44,16,,,,,,,,,,,,,,,,0.652065992355,0.595227956772,0.652065992355,0.350204944611,0.285273075104,1.00227093697,0.369540929794,0.305293083191,1.37181186676,0.350256919861,0.271912097931,1.72206878662,0.417667150497,0.33487200737,2.13973593712,0.334650993347,0.256847858429,2.47438693047,0.334310054779,0.255841016769,2.80869698524,0.351008892059,0.271080970764,3.1597058773,0.267014980316,0.189292907715,3.42672085762,0.250649929047,0.172873973846,3.67737078667,0.401665210724,0.320386886597,4.07903599739,0.400377988815,0.334829807281,4.47941398621,0.351323843002,0.271728992462,4.83073782921,0.317581176758,0.234126091003,5.14831900597,,,,0.334015846252,0.252279996872,5.48233485222,0.300040006638,0.217675924301,5.78237485886,,,,,j,1,0.758105993271,f,1,4.95184016228,,,,None,None,0.268638134003,0.205621004105,6.05101299286,0.28401184082,0.205811977386,6.33502483368,0.334208011627,0.251226902008,6.66923284531,0.434676170349,0.356636047363,7.10390901566,,,,,,,1,2,4,60.061145088560146,Dissertation,2018_Jul_18_1902,2,
,,0,,,Verdadero,Falso,f,B,single_left,La estudiante se encontró con su profesora para calmar su preocupación ,0,0,0,1,f,0,260,La profesora estaba muy preocupada.,,,,,,,,,,,,,,,,,,,,,,,,,0,0,0,0,0,45,45,59,,,,,,,,,,,,,,,,0.567248106003,0.527226924896,0.567248106003,0.366293907166,0.301858901978,0.933542013168,0.369219064713,0.321782112122,1.30276107788,0.451905012131,0.38904094696,1.75466609001,0.316879034042,0.254066944122,2.07154512405,0.384318828583,0.321369886398,2.45586395264,0.417899131775,0.355221986771,2.87376308441,0.468219995499,0.40699505806,3.34198307991,0.384457826614,0.323914051056,3.72644090652,0.301200151443,0.238358974457,4.02764105797,0.415591955185,0.352058172226,4.44323301315,,,,,,,,,,,,,,,,,,,,,,,f,1,0.923320055008,j,0,2.86177110672,,,,None,None,,,,,,,,,,,,,,,,,,,1,2,4,60.061145088560146,Dissertation,2018_Jul_18_1902,2,
,,1,,,Verdadero,Falso,j,B,congruent_right,La obra de teatro se presentó en el salón de conciertos,0,0,0,0,j,0,253,Los actores presentaron en un anfiteatro.,,,,,,,,,,,,,,,,,,,,,,,,,0,0,0,0,0,46,46,52,,,,,,,,,,,,,,,,0.617671012878,0.584491968155,0.617671012878,0.299957036972,0.255567789078,0.91762804985,0.400408029556,0.352583885193,1.31803607941,0.266920804977,0.217991113663,1.58495688438,0.302273035049,0.25489115715,1.88722991943,0.30100107193,0.254719018936,2.18823099136,0.350644111633,0.305927038193,2.538875103,0.317368984222,0.254192113876,2.85624408722,0.285036802292,0.238851070404,3.14128088951,0.333111047745,0.288007974625,3.47439193726,0.235053062439,0.187446117401,3.70944499969,,,,,,,,,,,,,,,,,,,,,,,j,1,0.456627130508,j,1,2.09003400803,,,,None,None,,,,,,,,,,,,,,,,,,,1,2,4,60.061145088560146,Dissertation,2018_Jul_18_1902,2,
,,1,,,Verdadero,Falso,f,A,congruent_right,a,0,0,0,0,j,0,312,a,,,,,,,,,,,,,,,,,,,,,,,,,0,0,0,0,0,47,47,71,,,,,,,,,,,,,,,,,,,,,,,,,,,,,,,,,,,,,,,,,,,,,,,,,,,,,,,,,,,,,,,,,,,,,,,j,1,0.656267881393,None,0,,,,,None,None,,,,,,,,,,,,,,,,,,,1,2,4,60.061145088560146,Dissertation,2018_Jul_18_1902,2,
,,0,,,Verdadero,Falso,j,B,incongruent_right,La cajera insertó el billete que el cliente le dejó en la caja pero no tenía cambio,0,1,1,0,j,0,119,La caja tenía muchos billetes pequeños.,,,,,,,,,,,,,,,,,,,,,,,,,0,0,0,0,0,48,48,29,,,,,,,,,,,,,,,,0.601716041565,0.550408124924,0.601716041565,0.249469995499,0.188513994217,0.851186037064,0.31680393219,0.234050035477,1.16798996925,0.266852855682,0.200855970383,1.43484282494,0.250780105591,0.185330152512,1.68562293053,0.234128952026,0.168773889542,1.91975188255,0.318398952484,0.254415035248,2.23815083504,0.318920135498,0.255213975906,2.55707097054,0.28170800209,0.218205928802,2.83877897263,0.252708911896,0.189721107483,3.09148788452,0.266880989075,0.201755046844,3.3583688736,0.268033981323,0.2064640522,3.62640285492,0.298866033554,0.219475984573,3.92526888847,0.318928003311,0.254943847656,4.24419689178,,,,0.433437108994,0.369747161865,4.67763400078,0.35239982605,0.288001060486,5.03003382683,,,,,j,1,0.523032188416,f,0,11.8030760288,,,,None,None,0.551565170288,0.485319137573,5.58159899712,,,,,,,,,,,,,,,,1,2,4,60.061145088560146,Dissertation,2018_Jul_18_1902,2,
,,0,,,Verdadero,Falso,f,B,single_right,Los meseros preparan las verduras en la cocina antes de servirlas,0,0,0,1,j,0,234,Los meseros lavan las verduras.,,,,,,,,,,,,,,,,,,,,,,,,,0,0,0,0,0,49,49,33,,,,,,,,,,,,,,,,0.686722040176,0.653175115585,0.686722040176,0.35114812851,0.289548158646,1.03787016869,0.267474889755,0.206154823303,1.30534505844,0.300289154053,0.237806081772,1.60563421249,0.334614992142,0.271197080612,1.94024920464,0.299944877625,0.239292144775,2.24019408226,0.284770011902,0.221868991852,2.52496409416,0.301068067551,0.234936952591,2.82603216171,0.233646869659,0.168182134628,3.05967903137,0.300541162491,0.238052129745,3.36022019386,0.382620811462,0.317784070969,3.74284100533,,,,,,,,,,,,,,,,,,,,,,,j,1,0.720251083374,f,1,2.16205811501,,,,None,None,,,,,,,,,,,,,,,,,,,1,2,4,60.061145088560146,Dissertation,2018_Jul_18_1902,2,
,,1,,,Verdadero,Falso,f,B,congruent_left,Carlos solo cultiva verduras en el jardín que tiene en casa,0,0,0,0,f,0,235,Carlos no compra muchas verduras en el supermercado.,,,,,,,,,,,,,,,,,,,,,,,,,0,0,0,0,0,50,50,34,,,,,,,,,,,,,,,,0.599160909653,0.552656888962,0.599160909653,0.26695394516,0.217617988586,0.866114854813,0.286442041397,0.238247871399,1.15255689621,0.215371131897,0.168861150742,1.36792802811,0.285815000534,0.239232063293,1.65374302864,0.351011037827,0.305233955383,2.00475406647,0.266764879227,0.204238891602,2.27151894569,0.268040895462,0.223152160645,2.53955984116,0.332188129425,0.267585992813,2.87174797058,0.501399040222,0.451866865158,3.3731470108,0.233649969101,0.182322978973,3.6067969799,,,,,,,,,,,,,,,,,,,,,,,f,1,0.653197050095,f,1,2.3579390049,,,,None,None,,,,,,,,,,,,,,,,,,,1,2,4,60.061145088560146,Dissertation,2018_Jul_18_1902,2,
,,0,,,Verdadero,Falso,f,B,single_left,Mi celular se me rompió cuando se me cayó al piso,0,0,0,1,f,0,252,Mi celular ya está roto.,,,,,,,,,,,,,,,,,,,,,,,,,0,0,0,0,0,51,51,51,,,,,,,,,,,,,,,,0.568964958191,0.524111032486,0.568964958191,0.30047082901,0.254573106766,0.869435787201,0.200606107712,0.138299226761,1.07004189491,0.268253087997,0.219429969788,1.33829498291,0.249948978424,0.201231002808,1.58824396133,0.218189954758,0.172219991684,1.80643391609,0.300565004349,0.255059957504,2.10699892044,0.549908876419,0.48571896553,2.65690779686,0.318819046021,0.255510091782,2.97572684288,0.317734003067,0.272072076797,3.29346084595,0.249922990799,0.204518079758,3.54338383675,,,,,,,,,,,,,,,,,,,,,,,f,1,0.88937997818,f,1,2.2938709259,,,,None,None,,,,,,,,,,,,,,,,,,,1,2,4,60.061145088560146,Dissertation,2018_Jul_18_1902,2,
,,0,,,Verdadero,Falso,f,A,single_left,a,0,0,0,1,f,0,305,a,,,,,,,,,,,,,,,,,,,,,,,,,0,0,0,0,0,52,52,64,,,,,,,,,,,,,,,,,,,,,,,,,,,,,,,,,,,,,,,,,,,,,,,,,,,,,,,,,,,,,,,,,,,,,,,f,1,0.739254951477,None,0,,,,,None,None,,,,,,,,,,,,,,,,,,,1,2,4,60.061145088560146,Dissertation,2018_Jul_18_1902,2,
,,0,,,Verdadero,Falso,f,A,single_right,a,0,0,0,1,j,0,310,a,,,,,,,,,,,,,,,,,,,,,,,,,0,0,0,0,0,53,53,69,,,,,,,,,,,,,,,,,,,,,,,,,,,,,,,,,,,,,,,,,,,,,,,,,,,,,,,,,,,,,,,,,,,,,,,j,1,0.42344379425,None,0,,,,,None,None,,,,,,,,,,,,,,,,,,,1,2,4,60.061145088560146,Dissertation,2018_Jul_18_1902,2,
,,1,,,Verdadero,Falso,j,B,congruent_left,No aceptaron a las mujeres en el club por sus prejuicios,0,0,0,0,f,0,259,Las mujeres tenían muchos prejuicios.,,,,,,,,,,,,,,,,,,,,,,,,,0,0,0,0,0,54,54,58,,,,,,,,,,,,,,,,0.616211175919,0.584006071091,0.616211175919,0.218508005142,0.173753023148,0.834719181061,0.266167879105,0.219856977463,1.10088706017,0.319154024124,0.269114017487,1.42004108429,0.266895055771,0.221040010452,1.68693614006,0.217561006546,0.154117107391,1.90449714661,0.400439023972,0.35470700264,2.30493617058,0.300529956818,0.237913131714,2.6054661274,0.234169006348,0.188707113266,2.83963513374,0.317212820053,0.253824949265,3.1568479538,0.234090089798,0.185763835907,3.39093804359,,,,,,,,,,,,,,,,,,,,,,,f,1,0.605871200562,j,1,2.52781319618,,,,None,None,,,,,,,,,,,,,,,,,,,1,2,4,60.061145088560146,Dissertation,2018_Jul_18_1902,2,
,,1,,,Verdadero,Falso,j,B,congruent_left,Los novios tomaron vino durante la fiesta,0,0,0,0,f,0,247,Los novios sólo toman cerveza.,,,,,,,,,,,,,,,,,,,,,,,,,0,0,0,0,0,55,55,46,,,,,,,,,,,,,,,,0.500471830368,0.473859071732,0.500471830368,0.299332141876,0.253737926483,0.799803972244,0.302213907242,0.253690004349,1.10201787949,0.267511129379,0.221966028214,1.36952900887,0.166067838669,0.12037396431,1.53559684753,0.352269172668,0.306898117065,1.8878660202,0.400782823563,0.356900930405,2.28864884377,,,,,,,,,,,,,,,,,,,,,,,,,,,,,,,,,,,f,1,0.773442983627,j,1,1.54393076897,,,,None,None,,,,,,,,,,,,,,,,,,,1,2,4,60.061145088560146,Dissertation,2018_Jul_18_1902,2,
,,0,,,Verdadero,Falso,f,A,single_right,a,0,0,0,1,j,0,302,a,,,,,,,,,,,,,,,,,,,,,,,,,0,0,0,0,0,56,56,61,,,,,,,,,,,,,,,,,,,,,,,,,,,,,,,,,,,,,,,,,,,,,,,,,,,,,,,,,,,,,,,,,,,,,,,j,1,0.589699029922,None,0,,,,,None,None,,,,,,,,,,,,,,,,,,,1,2,4,60.061145088560146,Dissertation,2018_Jul_18_1902,2,
,,0,,,Verdadero,Falso,f,B,incongruent_right,El chico toca el violín raro,0,0,1,0,j,0,257,El chico no sabe tocar bien.,,,,,,,,,,,,,,,,,,,,,,,,,0,0,0,0,0,57,57,56,,,,,,,,,,,,,,,,0.565687179565,0.54550409317,0.565687179565,0.267318964005,0.235821962357,0.83300614357,0.436342000961,0.405622005463,1.26934814453,0.233414888382,0.18959403038,1.50276303291,0.266574144363,0.22216796875,1.76933717728,0.29984998703,0.254272937775,2.06918716431,,,,,,,,,,,,,,,,,,,,,,,,,,,,,,,,,,,,,,j,1,0.470152854919,f,1,1.92290902138,,,,None,None,,,,,,,,,,,,,,,,,,,1,2,4,60.061145088560146,Dissertation,2018_Jul_18_1902,2,
,,0,,,Verdadero,Falso,f,B,single_left,La estudiante lista adivinó la respuesta correcta primero,0,0,0,1,f,0,248,La estudiante fue la primera en responder. ,,,,,,,,,,,,,,,,,,,,,,,,,0,0,0,0,0,58,58,47,,,,,,,,,,,,,,,,0.651430130005,0.618325948715,0.651430130005,0.266690015793,0.221716880798,0.918120145798,0.484726905823,0.438608884811,1.40284705162,0.268121004105,0.222044944763,1.67096805573,0.66760802269,0.602425098419,2.33857607841,0.281943082809,0.217200994492,2.62051916122,0.268193006516,0.218631982803,2.88871216774,0.268901824951,0.221762895584,3.15761399269,,,,,,,,,,,,,,,,,,,,,,,,,,,,,,,,f,1,0.506011962891,f,1,3.22988796234,,,,None,None,,,,,,,,,,,,,,,,,,,1,2,4,60.061145088560146,Dissertation,2018_Jul_18_1902,2,
,,0,,,Verdadero,Falso,f,B,incongruent_right,Antes de servir la comida el mesero rellenó las copas,0,0,1,0,j,0,245,El mesero era muy atento con los clientes.,,,,,,,,,,,,,,,,,,,,,,,,,0,0,0,0,0,59,59,44,,,,,,,,,,,,,,,,0.648888111115,0.615247964859,0.648888111115,0.318768024445,0.27154302597,0.967656135559,0.416923999786,0.371173143387,1.38458013535,0.18496799469,0.137868881226,1.56954813004,0.367471933365,0.306573867798,1.9370200634,0.300980091095,0.254301071167,2.2380001545,0.30052280426,0.254193067551,2.53852295876,0.284231185913,0.239332914352,2.82275414467,0.299836874008,0.235222101212,3.12259101868,0.419474124908,0.37237405777,3.54206514359,,,,,,,,,,,,,,,,,,,,,,,,,,j,1,0.473372936249,f,1,2.52909302711,,,,None,None,,,,,,,,,,,,,,,,,,,1,2,4,60.061145088560146,Dissertation,2018_Jul_18_1902,2,
,,0,,,Verdadero,Falso,f,B,incongruent_left,Cuando la participante adivinó la respuesta apareció en la pantalla,1,1,1,0,f,1,28,La participante está en un concurso.,,,,,,,,,,,,,,,,,,,,,,,,,0,0,0,0,0,60,60,7,,,,,,,,,,,,,,,,0.58398604393,0.544061183929,0.58398604393,0.250066995621,0.1879529953,0.834053039551,0.300893068314,0.234702110291,1.13494610786,0.233999013901,0.172246932983,1.36894512177,0.284473896027,0.22167801857,1.65341901779,0.299257993698,0.238227844238,1.95267701149,0.302546977997,0.237726211548,2.25522398949,0.317585945129,0.251249074936,2.57280993462,0.250296115875,0.187590122223,2.82310605049,0.232247114182,0.165851831436,3.05535316467,,,,,,,,,,,,,,,,,,,,,,,,,,f,1,0.941169023514,f,1,1.72193384171,,,,None,None,,,,,,,,,,,,,,,,,,,1,2,4,60.061145088560146,Dissertation,2018_Jul_18_1902,2,
,,1,,,Verdadero,Falso,j,B,congruent_left,Los chicos pusieron el pollo que su mamá preparó en el horno en la mesa antes de comer,1,1,0,0,f,0,39,La mamá preparó la comida en la mesa.,,,,,,,,,,,,,,,,,,,,,,,,,0,0,0,0,0,61,61,18,,,,,,,,,,,,,,,,0.601125001907,0.552422046661,0.601125001907,0.315336942673,0.254408121109,0.91646194458,0.301057100296,0.23576593399,1.21751904488,0.268260955811,0.200046777725,1.48578000069,0.318059921265,0.254821062088,1.80383992195,0.299973011017,0.237545967102,2.10381293297,0.317734003067,0.25549697876,2.42154693604,0.318258047104,0.256596088409,2.73980498314,0.30034995079,0.237698078156,3.04015493393,0.234107017517,0.154752016068,3.27426195145,0.385390996933,0.324132919312,3.65965294838,0.35024189949,0.270967006683,4.00989484787,0.70045208931,0.621368169785,4.71034693718,0.418433904648,0.33725810051,5.12878084183,,,,0.736478090286,0.657207965851,5.86525893211,0.417653083801,0.336431980133,6.28291201591,,,,,f,1,0.522505998611,j,1,3.36489510536,,,,None,None,0.250864028931,0.188774108887,6.53377604485,0.834776878357,0.75562787056,7.3685529232,,,,,,,,,,,,,1,2,4,60.061145088560146,Dissertation,2018_Jul_18_1902,2,
,,0,,,Verdadero,Falso,j,B,single_right,El chico guapo está bien solo ,0,0,0,1,j,0,258,El chico está contento sin novia.,,,,,,,,,,,,,,,,,,,,,,,,,0,0,0,0,0,62,62,57,,,,,,,,,,,,,,,,0.651041030884,0.630851984024,0.651041030884,0.283318996429,0.237331151962,0.934360027313,0.318696975708,0.27155995369,1.25305700302,0.417448043823,0.373029947281,1.67050504684,0.25079202652,0.201451063156,1.92129707336,0.165375947952,0.13602399826,2.08667302132,,,,,,,,,,,,,,,,,,,,,,,,,,,,,,,,,,,,,,j,1,0.621775865555,f,0,1.9767780304,,,,None,None,,,,,,,,,,,,,,,,,,,1,2,4,60.061145088560146,Dissertation,2018_Jul_18_1902,2,
,,1,,,Verdadero,Falso,j,B,congruent_left,La cantante colocó el micrófono que usó en el escenario en su lugar después del concierto,1,1,0,0,f,0,31,La cantante no usó un micrófono durante el show.,,,,,,,,,,,,,,,,,,,,,,,,,0,0,0,0,0,63,63,10,,,,,,,,,,,,,,,,0.652470111847,0.592204093933,0.652470111847,0.299823045731,0.233515977859,0.952293157578,0.217823982239,0.155594825745,1.17011713982,0.317898035049,0.251625061035,1.48801517487,0.283890008926,0.205505847931,1.77190518379,0.20109796524,0.121505022049,1.97300314903,0.417402982712,0.340299129486,2.39040613174,0.451995849609,0.390013933182,2.84240198135,0.283096075058,0.219399929047,3.12549805641,0.250956058502,0.185250043869,3.37645411491,0.165561914444,0.102082014084,3.54201602936,0.435817956924,0.354842185974,3.97783398628,0.3322930336,0.252645969391,4.31012701988,0.235080003738,0.169897079468,4.54520702362,,,,0.38364815712,0.318738937378,4.92885518074,0.235651016235,0.171188116074,5.16450619698,,,,,f,1,0.606621980667,j,1,2.84104609489,,,,None,None,,,,,,,,,,,,,,,,,,,1,2,4,60.061145088560146,Dissertation,2018_Jul_18_1902,2,
,,1,,,Verdadero,Falso,j,B,congruent_right,Cuando mi hermana maneja el carro mi papá camina a la oficina,0,0,0,0,j,0,237,Mi hermana tiene su propio carro.,,,,,,,,,,,,,,,,,,,,,,,,,0,0,0,0,0,64,64,36,,,,,,,,,,,,,,,,0.500686883926,0.466207027435,0.500686883926,0.250389099121,0.187597036362,0.751075983047,0.232659816742,0.169158935547,0.983735799789,0.302367210388,0.251868009567,1.28610301018,0.250454902649,0.205710172653,1.53655791283,0.234325885773,0.17117190361,1.7708837986,0.266792058945,0.204455137253,2.03767585754,0.351526975632,0.288210868835,2.38920283318,0.315675020218,0.254199028015,2.70487785339,0.0847640037537,0.0378179550171,2.78964185715,0.301618099213,0.238833904266,3.09125995636,0.599447965622,0.535508871078,3.69070792198,,,,,,,,,,,,,,,,,,,,j,1,0.617161035538,j,1,2.89728808403,,,,None,None,,,,,,,,,,,,,,,,,,,1,2,4,60.061145088560146,Dissertation,2018_Jul_18_1902,2,
,,0,,,Verdadero,Falso,f,A,incongruent_left,a,0,0,1,0,f,0,313,a,,,,,,,,,,,,,,,,,,,,,,,,,0,0,0,0,0,65,65,72,,,,,,,,,,,,,,,,,,,,,,,,,,,,,,,,,,,,,,,,,,,,,,,,,,,,,,,,,,,,,,,,,,,,,,,f,1,0.652566194534,None,0,,,,,None,None,,,,,,,,,,,,,,,,,,,1,2,4,60.061145088560146,Dissertation,2018_Jul_18_1902,2,
,,1,,,Verdadero,Falso,j,B,congruent_right,Las artistas colocaron el cuadro que su colega dejó en la pared en la oficina privada antes de su exhibición,1,1,0,0,j,0,38,La galería de arte estaba vacía cuando las artistas llegaron.,,,,,,,,,,,,,,,,,,,,,,,,,0,0,0,0,0,66,66,17,,,,,,,,,,,,,,,,0.634007930756,0.575929880142,0.634007930756,0.517990112305,0.438431978226,1.15199804306,0.31858086586,0.239992141724,1.47057890892,0.250186920166,0.171331167221,1.72076582909,0.300776004791,0.221419095993,2.02154183388,0.267685174942,0.189565896988,2.28922700882,0.366905927658,0.288515090942,2.65613293648,0.318499088287,0.238420009613,2.97463202477,0.449990034103,0.367290973663,3.42462205887,0.251339912415,0.171818971634,3.67596197128,0.401196956635,0.323753118515,4.07715892792,0.384376049042,0.305431127548,4.46153497696,0.333091020584,0.255432128906,4.79462599754,0.23442697525,0.155719995499,5.02905297279,,,,0.234196901321,0.138998985291,5.26324987411,0.250566005707,0.172121047974,5.51381587982,,,,,j,1,0.454697847366,j,1,5.29669499397,,,,None,None,0.332566022873,0.235968828201,5.84638190269,0.251363992691,0.170361042023,6.09774589539,0.953634977341,0.872866153717,7.05138087273,0.350897073746,0.255058050156,7.40227794647,,,,,,,1,2,4,60.061145088560146,Dissertation,2018_Jul_18_1902,2,
,,0,,,Verdadero,Falso,j,B,single_left,Siempre que da un concierto la artista canta sus canciones más conocidas,0,0,0,1,f,0,240,La artista siempre canta sus canciones recien salidas.,,,,,,,,,,,,,,,,,,,,,,,,,0,0,0,0,0,67,67,39,,,,,,,,,,,,,,,,0.465444087982,0.423005104065,0.465444087982,0.336477041245,0.288592100143,0.801921129227,0.283825874329,0.221024990082,1.08574700356,0.216878175735,0.153981208801,1.30262517929,0.267877817154,0.205338001251,1.57050299644,0.601138114929,0.535274028778,2.17164111137,0.282355070114,0.215978145599,2.45399618149,0.267395019531,0.203219890594,2.72139120102,0.352923870087,0.288759946823,3.07431507111,0.284035921097,0.218667030334,3.3583509922,0.417717218399,0.355053901672,3.7760682106,0.250755786896,0.187211036682,4.0268239975,,,,,,,,,,,,,,,,,,,,f,1,0.555227994919,j,1,2.89684104919,,,,None,None,,,,,,,,,,,,,,,,,,,1,2,4,60.061145088560146,Dissertation,2018_Jul_18_1902,2,
,,0,,,Verdadero,Falso,f,B,incongruent_right,Siempre que mi hermana sale el carro se queda sin gasolina,0,1,1,0,j,0,103,Mi hermana no rellena el tanque.,,,,,,,,,,,,,,,,,,,,,,,,,0,0,0,0,0,68,68,21,,,,,,,,,,,,,,,,0.600621938705,0.565565109253,0.600621938705,0.267431020737,0.21773982048,0.868052959442,0.251121044159,0.188135147095,1.1191740036,0.215864896774,0.169517993927,1.33503890038,0.268423080444,0.221357822418,1.60346198082,0.300915956497,0.254558086395,1.90437793732,0.284287929535,0.239174127579,2.18866586685,0.3001101017,0.25448679924,2.48877596855,0.350162982941,0.285670042038,2.83893895149,0.335803985596,0.285526037216,3.17474293709,0.282886981964,0.236703872681,3.45762991905,,,,,,,,,,,,,,,,,,,,,,,j,1,0.539074897766,f,1,1.8390610218,,,,None,None,,,,,,,,,,,,,,,,,,,1,2,4,60.061145088560146,Dissertation,2018_Jul_18_1902,2,
,,1,,,Verdadero,Falso,f,A,congruent_left,a,0,0,0,0,f,0,307,a,,,,,,,,,,,,,,,,,,,,,,,,,0,0,0,0,0,69,69,66,,,,,,,,,,,,,,,,,,,,,,,,,,,,,,,,,,,,,,,,,,,,,,,,,,,,,,,,,,,,,,,,,,,,,,,f,1,0.48533987999,None,0,,,,,None,None,,,,,,,,,,,,,,,,,,,1,2,4,60.061145088560146,Dissertation,2018_Jul_18_1902,2,
,,0,,,Verdadero,Falso,f,B,incongruent_left,Este año cuando gritaron el grito sonó hasta por las montañas,1,1,1,0,f,1,24,Se escuchó el grito desde lejos.,,,,,,,,,,,,,,,,,,,,,,,,,0,0,0,0,0,70,70,3,,,,,,,,,,,,,,,,0.633350133896,0.590259075165,0.633350133896,0.335443973541,0.288640022278,0.968794107437,0.216880083084,0.171342849731,1.18567419052,0.249424934387,0.182626008987,1.43509912491,0.285786867142,0.239706993103,1.72088599205,0.316962003708,0.257128000259,2.03784799576,0.265697002411,0.201975107193,2.30354499817,0.419947147369,0.372581958771,2.72349214554,0.400022029877,0.336738824844,3.12351417542,0.216367959976,0.167631864548,3.33988213539,0.268385887146,0.220164060593,3.60826802254,,,,,,,,,,,,,,,,,,,,,,,f,1,0.506464958191,f,1,2.10961604118,,,,None,None,,,,,,,,,,,,,,,,,,,1,2,4,60.061145088560146,Dissertation,2018_Jul_18_1902,2,
,,0,,,Verdadero,Falso,f,B,incongruent_right,Daniel metió el abrigo que su pareja dejó en la maleta en el clóset cuando regresaron,1,1,1,0,j,1,33,La pareja llevó un abrigo en su equipaje.,,,,,,,,,,,,,,,,,,,,,,,,,0,0,0,0,0,71,71,12,,,,,,,,,,,,,,,,0.552110910416,0.506072044373,0.552110910416,0.267048120499,0.187471151352,0.819159030914,0.317245006561,0.254905939102,1.13640403748,0.268138885498,0.20476603508,1.40454292297,0.284437179565,0.22247505188,1.68898010254,0.283639907837,0.206423997879,1.97262001038,0.584553956985,0.504629135132,2.55717396736,0.334563016891,0.271224975586,2.89173698425,0.28392791748,0.222712039948,3.17566490173,0.299444198608,0.217934131622,3.47510910034,0.267578840256,0.201928853989,3.7426879406,0.250418186188,0.186671972275,3.99310612679,0.284735918045,0.219843149185,4.27784204483,0.335501909256,0.268865823746,4.61334395409,,,,0.132733106613,0.0705180168152,4.7460770607,0.266325950623,0.200922966003,5.01240301132,,,,,j,1,0.504877090454,f,1,1.92658901215,,,,None,None,,,,,,,,,,,,,,,,,,,1,2,4,60.061145088560146,Dissertation,2018_Jul_18_1902,2,
,,1,,,Verdadero,Falso,j,B,congruent_left,Cuando la artista pintó el cuadro cayó de la pared,1,1,0,0,f,0,27,El cuadro está colgado firmemente.,,,,,,,,,,,,,,,,,,,,,,,,,0,0,0,0,0,72,72,6,,,,,,,,,,,,,,,,0.550951004028,0.51979804039,0.550951004028,0.316907167435,0.272013902664,0.867858171463,0.31671500206,0.271542787552,1.18457317352,0.283537864685,0.216834068298,1.46811103821,0.286051034927,0.238302946091,1.75416207314,0.383731126785,0.338251113892,2.13789319992,0.517946004868,0.453045129776,2.65583920479,0.299815893173,0.254096031189,2.95565509796,0.318996906281,0.270925045013,3.27465200424,0.267151117325,0.222455024719,3.54180312157,,,,,,,,,,,,,,,,,,,,,,,,,,f,1,0.587187051773,j,1,1.7584168911,,,,None,None,,,,,,,,,,,,,,,,,,,1,2,4,60.061145088560146,Dissertation,2018_Jul_18_1902,2,
,,0,,,Verdadero,Falso,f,B,incongruent_left,Las chicas acomodaron la ropa que sus padres les dejaron en su cuarto dentro del clóset antes de dormir,1,1,1,0,f,1,36,Los padres doblaron la ropa para sus hijas.,,,,,,,,,,,,,,,,,,,,,,,,,0,0,0,0,0,73,73,15,,,,,,,,,,,,,,,,0.53337097168,0.475144147873,0.53337097168,0.366050004959,0.286618947983,0.899420976639,0.352473974228,0.284033060074,1.25189495087,0.234888076782,0.155513048172,1.48678302765,0.316987991333,0.235253095627,1.80377101898,0.251123905182,0.173670053482,2.05489492416,0.315773010254,0.234799861908,2.37066793442,0.319043159485,0.255528926849,2.6897110939,0.30086183548,0.222232818604,2.99057292938,0.266534090042,0.188178062439,3.25710701942,0.351300001144,0.267566919327,3.60840702057,0.334734916687,0.25448012352,3.94314193726,0.384579181671,0.305111885071,4.32772111893,0.350303888321,0.250357866287,4.67802500725,,,,0.602205038071,0.523148059845,5.28023004532,0.115648031235,0.037034034729,5.39587807655,,,,,f,1,0.740195989609,j,0,2.55890488625,,,,None,None,0.920363903046,0.857000112534,6.3162419796,0.417808055878,0.338230133057,6.73405003548,0.300498962402,0.22113609314,7.03454899788,,,,,,,,,,1,2,4,60.061145088560146,Dissertation,2018_Jul_18_1902,2,
,,1,,,Verdadero,Falso,j,B,congruent_left,La arquitecta guardó los planos en su bolsa,0,0,0,0,f,0,231,Los planos están en el archivero.,,,,,,,,,,,,,,,,,,,,,,,,,0,0,0,0,0,74,74,30,,,,,,,,,,,,,,,,0.58621096611,0.55409693718,0.58621096611,0.267251968384,0.221862077713,0.853462934494,0.367657184601,0.323279857635,1.22112011909,0.265841960907,0.221590042114,1.48696208,0.283646821976,0.235146045685,1.77060890198,0.26731300354,0.218139886856,2.03792190552,0.285689115524,0.234221935272,2.32361102104,0.283952951431,0.237968921661,2.60756397247,,,,,,,,,,,,,,,,,,,,,,,,,,,,,,,,f,1,0.604740858078,j,1,1.92767977715,,,,None,None,,,,,,,,,,,,,,,,,,,1,2,4,60.061145088560146,Dissertation,2018_Jul_18_1902,2,
,,0,,,Verdadero,Falso,j,A,single_left,Mis hijas están saltando la cuerda en el jardín,0,0,0,1,f,0,226,A mis hijas no les gusta jugar en el jardín.,,,,,,,,,,,,,,,,,,,,,,,,,1,0,1,0,0,0,0,55,,,,,,,,,,,,,,,,0.53336596489,0.497340917587,0.53336596489,0.316689014435,0.270516872406,0.850054979324,0.319159984589,0.271177053452,1.16921496391,0.267306089401,0.217161178589,1.43652105331,0.250725984573,0.201406002045,1.68724703789,0.45182800293,0.406168937683,2.13907504082,0.250973939896,0.204773187637,2.39004898071,0.384169101715,0.335204124451,2.77421808243,0.250280857086,0.203347921371,3.02449893951,,,,,,,,,,,,,,,,,,,,,,,,,,,,,f,1,1.04119706154,j,1,2.47776198387,,,,None,None,,,,,,,,,,,,,,space,492.83378911,,,,1,2,4,60.061145088560146,Dissertation,2018_Jul_18_1902,2,
,,0,,,Verdadero,Falso,f,A,single_left,a,0,0,0,1,f,0,301,a,,,,,,,,,,,,,,,,,,,,,,,,,1,0,1,0,0,1,1,60,,,,,,,,,,,,,,,,,,,,,,,,,,,,,,,,,,,,,,,,,,,,,,,,,,,,,,,,,,,,,,,,,,,,,,,f,1,0.402230978012,None,0,,,,,None,None,,,,,,,,,,,,,,,,,,,1,2,4,60.061145088560146,Dissertation,2018_Jul_18_1902,2,
,,1,,,Verdadero,Falso,f,A,congruent_right,a,0,0,0,0,j,0,304,a,,,,,,,,,,,,,,,,,,,,,,,,,1,0,1,0,0,2,2,63,,,,,,,,,,,,,,,,,,,,,,,,,,,,,,,,,,,,,,,,,,,,,,,,,,,,,,,,,,,,,,,,,,,,,,,j,1,0.407183170319,None,0,,,,,None,None,,,,,,,,,,,,,,,,,,,1,2,4,60.061145088560146,Dissertation,2018_Jul_18_1902,2,
,,1,,,Verdadero,Falso,f,A,congruent_left,Después de que comieron el pollo se enfrió inmediatamente ,1,1,0,0,f,0,1,Comieron el pollo caliente.,,,,,,,,,,,,,,,,,,,,,,,,,1,0,1,0,0,3,3,0,,,,,,,,,,,,,,,,0.651588916779,0.612285852432,0.651588916779,0.449396133423,0.40033698082,1.1009850502,0.318676948547,0.271256923676,1.41966199875,0.200480937958,0.15443611145,1.62014293671,0.267251014709,0.220736980438,1.88739395142,0.351897954941,0.305706977844,2.23929190636,0.616255044937,0.552781105042,2.85554695129,0.418847084045,0.371465921402,3.27439403534,1.11990499496,1.0589401722,4.3942990303,,,,,,,,,,,,,,,,,,,,,,,,,,,,,f,1,0.35209608078,f,1,3.01436805725,,,,None,None,,,,,,,,,,,,,,,,,,,1,2,4,60.061145088560146,Dissertation,2018_Jul_18_1902,2,
,,1,,,Verdadero,Falso,f,A,congruent_left,a,0,0,0,0,f,0,307,a,,,,,,,,,,,,,,,,,,,,,,,,,1,0,1,0,0,4,4,66,,,,,,,,,,,,,,,,,,,,,,,,,,,,,,,,,,,,,,,,,,,,,,,,,,,,,,,,,,,,,,,,,,,,,,,f,1,0.640507936478,None,0,,,,,None,None,,,,,,,,,,,,,,,,,,,1,2,4,60.061145088560146,Dissertation,2018_Jul_18_1902,2,
,,0,,,Verdadero,Falso,f,A,single_left,a,0,0,0,1,f,0,309,a,,,,,,,,,,,,,,,,,,,,,,,,,1,0,1,0,0,5,5,68,,,,,,,,,,,,,,,,,,,,,,,,,,,,,,,,,,,,,,,,,,,,,,,,,,,,,,,,,,,,,,,,,,,,,,,f,1,0.438380002975,None,0,,,,,None,None,,,,,,,,,,,,,,,,,,,1,2,4,60.061145088560146,Dissertation,2018_Jul_18_1902,2,
,,0,,,Verdadero,Falso,f,A,single_right,El cocinero lava las verduras en el fregadero,0,0,0,1,j,0,204,El cocinero prepara las verduras él mismo.,,,,,,,,,,,,,,,,,,,,,,,,,1,0,1,0,0,6,6,33,,,,,,,,,,,,,,,,0.534495830536,0.507490873337,0.534495830536,0.283839225769,0.237936019897,0.818335056305,0.33251285553,0.287915945053,1.15084791183,0.217793941498,0.166532993317,1.36864185333,0.436076164246,0.389792919159,1.80471801758,0.233090877533,0.187520980835,2.03780889511,0.385197162628,0.338610887527,2.42300605774,0.300620794296,0.254880905151,2.72362685204,,,,,,,,,,,,,,,,,,,,,,,,,,,,,,,,j,1,0.43951010704,f,1,2.57924795151,,,,None,None,,,,,,,,,,,,,,,,,,,1,2,4,60.061145088560146,Dissertation,2018_Jul_18_1902,2,
,,0,,,Verdadero,Falso,f,A,incongruent_right,Después de que llegué el maratón empezó inmediatamente,0,1,1,0,j,0,121,Llegué para ver el inicio de la carrera.,,,,,,,,,,,,,,,,,,,,,,,,,1,0,1,0,0,7,7,20,,,,,,,,,,,,,,,,0.548961877823,0.497584104538,0.548961877823,0.369141101837,0.321723937988,0.91810297966,0.317440032959,0.267860889435,1.23554301262,0.299458026886,0.236962080002,1.53500103951,0.318511009216,0.270874977112,1.85351204872,0.385504961014,0.339278936386,2.23901700974,0.416892051697,0.356261968613,2.65590906143,0.265107870102,0.201733112335,2.92101693153,,,,,,,,,,,,,,,,,,,,,,,,,,,,,,,,j,1,0.522775888443,f,1,2.5277569294,,,,None,None,,,,,,,,,,,,,,,,,,,1,2,4,60.061145088560146,Dissertation,2018_Jul_18_1902,2,
,,1,,,Verdadero,Falso,f,A,congruent_right,Cuando era niña Inés saltaba la cuerda mucho ,0,0,0,0,j,0,211,Inés sabe saltar la cuerda.,,,,,,,,,,,,,,,,,,,,,,,,,1,0,1,0,0,8,8,40,,,,,,,,,,,,,,,,0.499850988388,0.472060918808,0.499850988388,0.351624011993,0.304764986038,0.851475000381,0.299954175949,0.255573987961,1.15142917633,0.282730817795,0.236595153809,1.43415999413,0.25070309639,0.202167987823,1.68486309052,0.352906942368,0.300972938538,2.03777003288,0.300950050354,0.25187921524,2.33872008324,0.283483028412,0.237733840942,2.62220311165,,,,,,,,,,,,,,,,,,,,,,,,,,,,,,,,j,1,0.435198068619,f,1,1.8260641098,,,,None,None,,,,,,,,,,,,,,,,,,,1,2,4,60.061145088560146,Dissertation,2018_Jul_18_1902,2,
,,1,,,Verdadero,Falso,f,A,congruent_left,Cuando la chica lava los platos se quedan bien sucios,1,1,0,0,f,0,9,La chica lava sin cuidado.,,,,,,,,,,,,,,,,,,,,,,,,,1,0,1,0,0,9,9,8,,,,,,,,,,,,,,,,0.58548116684,0.522155046463,0.58548116684,0.35065984726,0.268146038055,0.936141014099,0.352313041687,0.291723966599,1.28845405579,0.300089120865,0.238682031631,1.58854317665,0.21661901474,0.137135982513,1.80516219139,0.284228801727,0.221137046814,2.08939099312,0.284285068512,0.18808889389,2.37367606163,0.267863035202,0.20515704155,2.64153909683,0.299968004227,0.238120079041,2.94150710106,0.316792964935,0.253883123398,3.25830006599,,,,,,,,,,,,,,,,,,,,,,,,,,f,1,0.557710886002,f,1,1.82120299339,,,,None,None,,,,,,,,,,,,,,,,,,,1,2,4,60.061145088560146,Dissertation,2018_Jul_18_1902,2,
,,1,,,Verdadero,Falso,f,A,congruent_left,El mesero vació el vino que los clientes dejaron en la mesa en el fregadero después de que se fueron,1,1,0,0,f,0,17,Los clientes se fueron sin tomar todo el vino. ,,,,,,,,,,,,,,,,,,,,,,,,,1,0,1,0,0,10,10,16,,,,,,,,,,,,,,,,0.618965148926,0.533127069473,0.618965148926,0.282864809036,0.171705007553,0.901829957962,0.301272153854,0.22180891037,1.20310211182,0.268267869949,0.152992010117,1.47136998177,0.233632087708,0.158425807953,1.70500206947,0.4679479599,0.390335083008,2.17295002937,0.283453941345,0.200474023819,2.45640397072,0.300884962082,0.222904920578,2.7572889328,0.234742164612,0.137976169586,2.99203109741,0.334254026413,0.255094051361,3.32628512383,0.267235994339,0.188329935074,3.59352111816,0.283690929413,0.204920053482,3.87721204758,0.267822027206,0.168435096741,4.14503407478,0.24924492836,0.170078992844,4.39427900314,,,,0.283991098404,0.187730073929,4.67827010155,0.31720995903,0.18733382225,4.99548006058,,,,,f,1,0.487188816071,f,1,2.31005501747,,,,None,None,0.267621040344,0.137928009033,5.26310110092,0.334194898605,0.218471050262,5.59729599953,0.284243106842,0.187478065491,5.88153910637,0.217566013336,0.104460000992,6.09910511971,,,,,,,1,2,4,60.061145088560146,Dissertation,2018_Jul_18_1902,2,
,,0,,,Verdadero,Falso,j,A,incongruent_left,Después de que limpiaron la casa brillaba por todas partes,1,1,1,0,f,1,2,Todavía tienen que limpiar la sala.,,,,,,,,,,,,,,,,,,,,,,,,,1,0,1,0,0,11,11,1,,,,,,,,,,,,,,,,0.449142932892,0.413650035858,0.449142932892,0.284603118896,0.236701965332,0.733746051788,0.301689863205,0.254926204681,1.03543591499,0.250120162964,0.206054210663,1.28555607796,0.416212797165,0.352294921875,1.70176887512,0.201908111572,0.154672145844,1.90367698669,0.452041864395,0.388835906982,2.35571885109,0.250471115112,0.206242084503,2.6061899662,0.266868114471,0.221431970596,2.87305808067,0.333427906036,0.253993988037,3.20648598671,,,,,,,,,,,,,,,,,,,,,,,,,,f,1,0.486481904984,j,1,1.45869088173,,,,None,None,,,,,,,,,,,,,,,,,,,1,2,4,60.061145088560146,Dissertation,2018_Jul_18_1902,2,
,,0,,,Verdadero,Falso,j,A,incongruent_left,Mis amigas se reunieron en la escuela para ir a jugar fútbol,0,0,1,0,f,0,209,Jugaron béisbol mis amigas.  ,,,,,,,,,,,,,,,,,,,,,,,,,1,0,1,0,0,12,12,38,,,,,,,,,,,,,,,,0.517554044724,0.479026079178,0.517554044724,0.30272102356,0.254889965057,0.820275068283,0.215649843216,0.151693105698,1.0359249115,0.25168800354,0.205627918243,1.28761291504,0.232704162598,0.184218168259,1.52031707764,0.335320949554,0.287801027298,1.85563802719,0.284440040588,0.205317020416,2.14007806778,0.401409864426,0.355487108231,2.54148793221,0.183335065842,0.120705127716,2.72482299805,0.217600107193,0.154297828674,2.94242310524,0.315780878067,0.252352952957,3.25820398331,0.201977014542,0.151089906693,3.46018099785,,,,,,,,,,,,,,,,,,,,f,1,0.453322887421,j,1,1.442882061,,,,None,None,,,,,,,,,,,,,,,,,,,1,2,4,60.061145088560146,Dissertation,2018_Jul_18_1902,2,
,,0,,,Verdadero,Falso,f,A,single_right,Me reí cuando mi amiga me contó la historia de su encuentro con su ex.,0,0,0,1,j,0,220,La historia de mi amiga me dio gracia.,,,,,,,,,,,,,,,,,,,,,,,,,1,0,1,0,0,13,13,49,,,,,,,,,,,,,,,,0.919646978378,0.873089075089,0.919646978378,0.317425966263,0.252720832825,1.23707294464,0.233997106552,0.171300888062,1.47107005119,0.535144090652,0.468898057938,2.00621414185,0.266233921051,0.20268702507,2.2724480629,0.60129904747,0.522027015686,2.87374711037,0.251364946365,0.187353849411,3.12511205673,0.250375032425,0.18786406517,3.37548708916,0.267472982407,0.203879117966,3.64296007156,0.25022983551,0.187798976898,3.89318990707,0.167986154556,0.105883836746,4.06117606163,0.351104974747,0.288943052292,4.41228103638,0.268171072006,0.189812898636,4.68045210838,0.400715827942,0.340214014053,5.08116793633,,,,0.317021131516,0.254415988922,5.39818906784,,,,,,,,j,1,0.473551034927,f,1,1.96373414993,,,,None,None,,,,,,,,,,,,,,,,,,,1,2,4,60.061145088560146,Dissertation,2018_Jul_18_1902,2,
,,0,,,Verdadero,Falso,j,A,incongruent_right,Mientras el padre leía la biblia antigua se partió en dos ,1,1,1,0,j,1,7,La biblia se quedó intacta.,,,,,,,,,,,,,,,,,,,,,,,,,1,0,1,0,0,14,14,6,,,,,,,,,,,,,,,,0.918955087662,0.887095928192,0.918955087662,0.367730140686,0.318373918533,1.28668522835,0.183473825455,0.138439178467,1.4701590538,0.265459060669,0.220499992371,1.73561811447,0.285511016846,0.222800970078,2.02112913132,0.284986019135,0.22164607048,2.30611515045,0.349566936493,0.287197828293,2.65568208694,0.26868891716,0.222106933594,2.9243710041,0.317519187927,0.272455215454,3.24189019203,0.382761955261,0.333568096161,3.62465214729,0.335682868958,0.288121938705,3.96033501625,,,,,,,,,,,,,,,,,,,,,,,j,1,0.573333024979,j,1,1.44308614731,,,,None,None,,,,,,,,,,,,,,,,,,,1,2,4,60.061145088560146,Dissertation,2018_Jul_18_1902,2,
,,0,,,Verdadero,Falso,j,A,single_right,Cuando Dora ganó la lotería se compró un reloj de diamantes,0,0,0,1,j,0,216,Dora ahorró todo el dinero que ganó. ,,,,,,,,,,,,,,,,,,,,,,,,,1,0,1,0,0,15,15,45,,,,,,,,,,,,,,,,0.616968870163,0.538048028946,0.616968870163,0.201527118683,0.121783018112,0.818495988846,0.299598932266,0.219877958298,1.11809492111,0.217517137527,0.1714220047,1.33561205864,0.234972953796,0.171344995499,1.57058501244,0.233134031296,0.150853157043,1.80371904373,0.284569978714,0.218937158585,2.08828902245,0.368963003159,0.322663068771,2.4572520256,0.634075880051,0.570828914642,3.09132790565,0.200695037842,0.153146982193,3.2920229435,0.317917108536,0.254812002182,3.60994005203,,,,,,,,,,,,,,,,,,,,,,,j,1,0.505393028259,j,1,1.37430286407,,,,None,None,,,,,,,,,,,,,,,,,,,1,2,4,60.061145088560146,Dissertation,2018_Jul_18_1902,2,
,,0,,,Verdadero,Falso,j,A,incongruent_right,María acomodó las revistas que Gabriela dejó bajo la cama en el librero cuando las encontró,1,1,1,0,j,1,15,Las revistas de Gabriela están escondidas bajo la cama.,,,,,,,,,,,,,,,,,,,,,,,,,1,0,1,0,0,16,16,14,,,,,,,,,,,,,,,,0.549753189087,0.492157936096,0.549753189087,0.251899957657,0.189407110214,0.801653146744,0.232239961624,0.152021884918,1.03389310837,0.233532905579,0.154021978378,1.26742601395,0.250643014908,0.136150836945,1.51806902885,0.301500082016,0.204789876938,1.81956911087,0.267378091812,0.168072938919,2.08694720268,0.26713681221,0.170560121536,2.35408401489,0.350313186646,0.288327932358,2.70439720154,0.301028966904,0.236076116562,3.00542616844,0.251092910767,0.170989990234,3.25651907921,0.317496061325,0.220809936523,3.57401514053,0.301075935364,0.188704967499,3.8750910759,0.300503015518,0.21665096283,4.17559409142,,,,0.55158996582,0.48605799675,4.72718405724,0.70184803009,0.634162187576,5.42903208733,,,,,j,1,0.576179981232,j,1,3.39255809784,,,,None,None,,,,,,,,,,,,,,,,,,,1,2,4,60.061145088560146,Dissertation,2018_Jul_18_1902,2,
,,1,,,Verdadero,Falso,f,A,congruent_right,Cuando mi madre lavaba la ropa quedaba muy limpia,1,1,0,0,j,0,8,Mi madre me ayuda con el lavado de ropa.,,,,,,,,,,,,,,,,,,,,,,,,,1,0,1,0,0,17,17,7,,,,,,,,,,,,,,,,0.500910043716,0.469192028046,0.500910043716,0.36695599556,0.303135156631,0.867866039276,0.2836830616,0.235105037689,1.15154910088,0.283859014511,0.235284805298,1.43540811539,0.267745018005,0.203523874283,1.70315313339,0.319332838058,0.255175828934,2.02248597145,0.317355155945,0.27205991745,2.3398411274,0.29861998558,0.237210988998,2.63846111298,0.352970838547,0.30640912056,2.99143195152,,,,,,,,,,,,,,,,,,,,,,,,,,,,,j,1,0.820446968079,j,0,2.99595999718,,,,None,None,,,,,,,,,,,,,,,,,,,1,2,4,60.061145088560146,Dissertation,2018_Jul_18_1902,2,
,,0,,,Verdadero,Falso,f,A,incongruent_right,Cuando el escultor volvió la obra estaba instalada en el parque,0,1,1,0,j,0,129,La obra era para el público.,,,,,,,,,,,,,,,,,,,,,,,,,1,0,1,0,0,18,18,24,,,,,,,,,,,,,,,,0.56538105011,0.526202917099,0.56538105011,0.351470947266,0.288106918335,0.916851997375,0.317093849182,0.237096071243,1.23394584656,0.284649133682,0.189648866653,1.51859498024,0.534937858582,0.439923048019,2.05353283882,0.283585071564,0.189234018326,2.33711791039,0.300929069519,0.184367895126,2.6380469799,0.333558082581,0.238408088684,2.97160506248,0.301303863525,0.237466812134,3.27290892601,0.3176009655,0.254637002945,3.59050989151,0.28502702713,0.205753087997,3.87553691864,,,,,,,,,,,,,,,,,,,,,,,j,1,0.50502705574,f,1,1.4248509407,,,,None,None,,,,,,,,,,,,,,,,,,,1,2,4,60.061145088560146,Dissertation,2018_Jul_18_1902,2,
,,0,,,Verdadero,Falso,f,A,single_left,a,0,0,0,1,f,0,305,a,,,,,,,,,,,,,,,,,,,,,,,,,1,0,1,0,0,19,19,64,,,,,,,,,,,,,,,,,,,,,,,,,,,,,,,,,,,,,,,,,,,,,,,,,,,,,,,,,,,,,,,,,,,,,,,f,1,0.473077058792,None,0,,,,,None,None,,,,,,,,,,,,,,,,,,,1,2,4,60.061145088560146,Dissertation,2018_Jul_18_1902,2,
,,0,,,Verdadero,Falso,f,A,single_right,a,0,0,0,1,j,0,306,a,,,,,,,,,,,,,,,,,,,,,,,,,1,0,1,0,0,20,20,65,,,,,,,,,,,,,,,,,,,,,,,,,,,,,,,,,,,,,,,,,,,,,,,,,,,,,,,,,,,,,,,,,,,,,,,j,1,0.409555912018,None,0,,,,,None,None,,,,,,,,,,,,,,,,,,,1,2,4,60.061145088560146,Dissertation,2018_Jul_18_1902,2,
,,0,,,Verdadero,Falso,j,A,incongruent_right,Paco dejó los pantalones que compró en la tienda en su cuarto cuando volvió,1,1,1,0,j,1,11,A Paco los pantalones se le quedaron en la tienda.,,,,,,,,,,,,,,,,,,,,,,,,,1,0,1,0,0,21,21,10,,,,,,,,,,,,,,,,0.485881090164,0.448715925217,0.485881090164,0.317997932434,0.255410909653,0.803879022598,0.25041103363,0.188549995422,1.05429005623,0.267509937286,0.205478191376,1.32179999352,0.249888181686,0.187688112259,1.5716881752,0.451353788376,0.388236999512,2.02304196358,0.300980091095,0.238950967789,2.32402205467,0.350157976151,0.287130117416,2.67418003082,0.250684976578,0.170717000961,2.9248650074,0.261108160019,0.166662931442,3.18597316742,0.425067901611,0.323083162308,3.61104106903,0.366352081299,0.287261009216,3.97739315033,0.969460010529,0.886429071426,4.94685316086,0.301122903824,0.189466953278,5.24797606468,,,,,,,,,,,,,,j,1,0.606245994568,j,1,2.47525811195,,,,None,None,,,,,,,,,,,,,,,,,,,1,2,4,60.061145088560146,Dissertation,2018_Jul_18_1902,2,
,,0,,,Verdadero,Falso,f,A,single_left,a,0,0,0,1,f,0,314,a,,,,,,,,,,,,,,,,,,,,,,,,,1,0,1,0,0,22,22,73,,,,,,,,,,,,,,,,,,,,,,,,,,,,,,,,,,,,,,,,,,,,,,,,,,,,,,,,,,,,,,,,,,,,,,,f,1,0.47306895256,None,0,,,,,None,None,,,,,,,,,,,,,,,,,,,1,2,4,60.061145088560146,Dissertation,2018_Jul_18_1902,2,
,,1,,,Verdadero,Falso,f,A,congruent_right,a,0,0,0,0,j,0,308,a,,,,,,,,,,,,,,,,,,,,,,,,,1,0,1,0,0,23,23,67,,,,,,,,,,,,,,,,,,,,,,,,,,,,,,,,,,,,,,,,,,,,,,,,,,,,,,,,,,,,,,,,,,,,,,,j,1,0.425568819046,None,0,,,,,None,None,,,,,,,,,,,,,,,,,,,1,2,4,60.061145088560146,Dissertation,2018_Jul_18_1902,2,
,,0,,,Verdadero,Falso,j,A,incongruent_left,Cuando los jardineros terminaron el jardín quedó lleno de flores,1,1,1,0,f,1,10,Los jardineros todavía no acaban su trabajo.,,,,,,,,,,,,,,,,,,,,,,,,,1,0,1,0,0,24,24,9,,,,,,,,,,,,,,,,0.667726993561,0.624634981155,0.667726993561,0.41589307785,0.351639032364,1.08362007141,0.25230383873,0.203840017319,1.33592391014,0.335512161255,0.289486885071,1.6714360714,0.233687877655,0.171538829803,1.90512394905,0.300216913223,0.237674951553,2.20534086227,0.333374023438,0.26736998558,2.53871488571,0.218344211578,0.15490603447,2.75705909729,0.250448942184,0.172660112381,3.00750803947,0.35133600235,0.28658413887,3.35884404182,,,,,,,,,,,,,,,,,,,,,,,,,,j,0,0.403787136078,j,1,1.64500212669,,,,None,None,,,,,,,,,,,,,,,,,,,1,2,4,60.061145088560146,Dissertation,2018_Jul_18_1902,2,
,,0,,,Verdadero,Falso,j,A,incongruent_left,Mi mamá guardó la escultura que hizo en la clase en su mesa de trabajo,1,1,1,0,f,1,14,La escultura está en mi estudio de arte.,,,,,,,,,,,,,,,,,,,,,,,,,1,0,1,0,0,25,25,13,,,,,,,,,,,,,,,,0.636073827744,0.597584962845,0.636073827744,0.266144037247,0.204208850861,0.90221786499,0.318502187729,0.255597114563,1.22072005272,0.233417987823,0.171946048737,1.45413804054,0.316068887711,0.253419876099,1.77020692825,0.55223107338,0.504196166992,2.32243800163,0.305237054825,0.241384029388,2.62767505646,0.331292867661,0.271415233612,2.95896792412,0.282958030701,0.221527099609,3.24192595482,0.201167106628,0.137563943863,3.44309306145,0.367904901505,0.306752920151,3.81099796295,0.283475875854,0.220268964767,4.09447383881,0.334781169891,0.272279977798,4.4292550087,0.316460847855,0.254531145096,4.74571585655,,,,0.469161987305,0.405502080917,5.21487784386,,,,,,,,f,1,0.471597909927,j,1,1.82521891594,,,,None,None,,,,,,,,,,,,,,,,,,,1,2,4,60.061145088560146,Dissertation,2018_Jul_18_1902,2,
,,1,,,Verdadero,Falso,f,A,congruent_right,Mi hija pintó el cuadro que está en la pared de mi oficina,0,0,0,0,j,0,219,Tengo arte colgado en mi oficina.,,,,,,,,,,,,,,,,,,,,,,,,,1,0,1,0,0,26,26,48,,,,,,,,,,,,,,,,0.550421953201,0.516665935516,0.550421953201,0.350518941879,0.305119991302,0.900940895081,0.283820152283,0.219575166702,1.18476104736,0.266386985779,0.218059062958,1.45114803314,0.251439809799,0.202713012695,1.70258784294,0.200757026672,0.154274940491,1.90334486961,0.300186157227,0.235253095627,2.20353102684,0.352197885513,0.304073810577,2.55572891235,0.317342996597,0.271177053452,2.87307190895,0.468601942062,0.406574964523,3.34167385101,0.216875076294,0.156280994415,3.55854892731,0.382570981979,0.317770004272,3.94111990929,0.38650894165,0.335127830505,4.32762885094,,,,,,,,,,,,,,,,,j,1,0.541408061981,f,1,7.27416110039,,,,None,None,,,,,,,,,,,,,,,,,,,1,2,4,60.061145088560146,Dissertation,2018_Jul_18_1902,2,
