sentence,compQ,compRespL,compRespR,compRespCorr,incongruentambiguous,criticalSentenceCode,image,ambiguous,critical,congruent,Incongruent,Single,block,imageCorrAns,blocks.thisRepN,blocks.thisTrialN,blocks.thisN,blocks.thisIndex,trials.thisRepN,trials.thisTrialN,trials.thisN,trials.thisIndex,keyResponsePreStart.keys,keyResponsePreStart.rt,flankerkeyresponse.keys,flankerkeyresponse.corr,flankerkeyresponse.rt,IRI_0,IRI_FL_0,space_0,IRI_1,IRI_FL_1,space_1,IRI_2,IRI_FL_2,space_2,IRI_3,IRI_FL_3,space_3,IRI_4,IRI_FL_4,space_4,IRI_5,IRI_FL_5,space_5,IRI_6,IRI_FL_6,space_6,IRI_7,IRI_FL_7,space_7,IRI_8,IRI_FL_8,space_8,CompQkeyresponse.keys,CompQkeyresponse.corr,CompQkeyresponse.rt,key_resp_2.keys,key_resp_4.keys,IRI_9,IRI_FL_9,space_9,IRI_10,IRI_FL_10,space_10,IRI_11,IRI_FL_11,space_11,IRI_12,IRI_FL_12,space_12,IRI_13,IRI_FL_13,space_13,IRI_14,IRI_FL_14,space_14,IRI_15,IRI_FL_15,space_15,IRI_16,IRI_FL_16,space_16,key_resp_2.rt,key_resp_4.rt,IRI_17,IRI_FL_17,space_17,IRI_18,IRI_FL_18,space_18,IRI_19,IRI_FL_19,space_19,IRI_20,IRI_FL_20,space_20,rest_keyresponse.keys,rest_keyresponse.rt,session,participant,level,frameRate,expName,date,group,
,,,,,,,,,,,,,,,,,,,,,,,space,12.1090509892,,,,,,,,,,,,,,,,,,,,,,,,,,,,,,,,,,,,,,,,,,,,,,,,,,,,,,,,,,,,,,,,,,,,,,,,,,,,1,3,4,58.75650876590856,Dissertation,2018_Jul_18_2124,1,
Siempre que mi hermana maneja el carro suena raro ,El carro está en una condición perfecta.,Verdadero,Falso,j,1,3,incongruent_right,1,1,0,1,0,A,j,0,0,0,0,0,0,0,2,,,j,1,0.571197986603,0.499891042709,0.464696884155,0.499891042709,0.200627088547,0.154568910599,0.700518131256,0.351714849472,0.305343866348,1.05223298073,0.21541595459,0.153090953827,1.26764893532,0.185257196426,0.134227991104,1.45290613174,0.384427785873,0.338532924652,1.83733391762,0.367819070816,0.322594165802,2.20515298843,0.400720119476,0.353000879288,2.60587310791,0.434479951859,0.372633934021,3.04035305977,j,1,1.9400241375,None,None,,,,,,,,,,,,,,,,,,,,,,,,,,,,,,,,,,,,,,,,,1,3,4,58.75650876590856,Dissertation,2018_Jul_18_2124,1,
a,a,Verdadero,Falso,f,0,310,single_right,0,0,0,0,1,A,j,0,0,0,0,0,1,1,69,,,j,1,0.387183189392,,,,,,,,,,,,,,,,,,,,,,,,,,,,None,0,,None,None,,,,,,,,,,,,,,,,,,,,,,,,,,,,,,,,,,,,,,,,,1,3,4,58.75650876590856,Dissertation,2018_Jul_18_2124,1,
Mientras la esposa toca el piano el esposo lava los platos,La esposa sabe tocar un instrumento.,Verdadero,Falso,f,0,214,single_left,0,0,0,0,1,A,f,0,0,0,0,0,2,2,43,,,f,1,0.521702051163,0.73501086235,0.701642036438,0.73501086235,0.234377145767,0.171811103821,0.969388008118,0.41682600975,0.35456609726,1.38621401787,0.384706020355,0.321583032608,1.77092003822,0.233820915222,0.188056945801,2.00474095345,0.334863901138,0.288595199585,2.33960485458,0.166620016098,0.106019973755,2.50622487068,0.383339166641,0.303255796432,2.88956403732,0.168068885803,0.121017932892,3.05763292313,f,1,2.12516403198,None,None,0.349560022354,0.301903963089,3.40719294548,0.353089094162,0.306354045868,3.76028203964,,,,,,,,,,,,,,,,,,,,,,,,,,,,,,,,,,,1,3,4,58.75650876590856,Dissertation,2018_Jul_18_2124,1,
Antes de que cantaran esa canción no era muy conocida ,Todos ya se sabían la canción antes de la fiesta.,Verdadero,Falso,j,1,6,incongruent_left,1,1,0,1,0,A,f,0,0,0,0,0,3,3,5,,,f,1,0.507614850998,0.751076936722,0.716420888901,0.751076936722,0.183919906616,0.136147022247,0.934996843338,0.251055955887,0.204826116562,1.18605279922,0.234765052795,0.189301013947,1.42081785202,0.599761962891,0.553170919418,2.02057981491,0.386504173279,0.335598945618,2.40708398819,0.366146802902,0.320322036743,2.77323079109,0.250538110733,0.203401088715,3.02376890182,0.334897994995,0.287373065948,3.35866689682,j,1,2.44281220436,None,None,0.148684978485,0.0982670783997,3.50735187531,,,,,,,,,,,,,,,,,,,,,,,,,,,,,,,,,,,,,,1,3,4,58.75650876590856,Dissertation,2018_Jul_18_2124,1,
Justo después de bajarme el autobús falló de repente ,Deben mandar el autobús al mecánico.,Verdadero,Falso,f,0,213,congruent_left,0,0,1,0,0,A,f,0,0,0,0,0,4,4,42,,,f,1,0.555693149567,0.750703811646,0.718554019928,0.750703811646,0.200949192047,0.155959844589,0.951653003693,0.432331800461,0.386162042618,1.38398480415,0.152442216873,0.104062795639,1.53642702103,0.317356824875,0.25133395195,1.8537838459,0.350909948349,0.288645029068,2.20469379425,0.417621135712,0.372122049332,2.62231492996,0.485089063644,0.422267198563,3.10740399361,0.350739002228,0.287548065186,3.45814299583,f,1,2.22446298599,None,None,,,,,,,,,,,,,,,,,,,,,,,,,,,,,,,,,,,,,,,,,1,3,4,58.75650876590856,Dissertation,2018_Jul_18_2124,1,
Antes de que bebieran el vino se volvió vinagre ,No tomaron vino porque se había echado a perder.,Verdadero,Falso,f,0,5,congruent_left,1,1,1,0,0,A,f,0,0,0,0,0,5,5,4,,,f,1,0.416728973389,0.686325073242,0.651053905487,0.686325073242,0.215832948685,0.170813083649,0.902158021927,0.268387079239,0.221339941025,1.17054510117,0.150843858719,0.104557991028,1.32138895988,0.266324043274,0.218033075333,1.58771300316,0.401526927948,0.35414981842,1.98923993111,0.317450046539,0.270507097244,2.30668997765,0.384762048721,0.337931871414,2.69145202637,0.418169021606,0.369797945023,3.10962104797,f,1,2.70953392982,None,None,,,,,,,,,,,,,,,,,,,,,,,,,,,,,,,,,,,,,,,,,1,3,4,58.75650876590856,Dissertation,2018_Jul_18_2124,1,
Jimena duerme bien en la cama en su cuarto,La cama de Jimena es cómoda.,Verdadero,Falso,f,0,205,congruent_left,0,0,1,0,0,A,f,0,0,0,0,0,6,6,34,,,f,1,0.472231864929,0.666082143784,0.637939929962,0.666082143784,0.202008962631,0.155264139175,0.868091106415,0.400563001633,0.356532096863,1.26865410805,0.268576860428,0.222187042236,1.53723096848,0.350089073181,0.304990053177,1.88732004166,0.317013025284,0.271855115891,2.20433306694,0.285232067108,0.23904299736,2.48956513405,0.350636005402,0.304886102676,2.84020113945,0.349078893661,0.299740076065,3.18928003311,f,1,1.67553091049,None,None,,,,,,,,,,,,,,,,,,,,,,,,,,,,,,,,,,,,,,,,,1,3,4,58.75650876590856,Dissertation,2018_Jul_18_2124,1,
La madre metió los vasos sucios que su hija dejó en el lavaplatos cuando acabó de comer,La madre limpió después de la comida.,Verdadero,Falso,f,0,137,incongruent_right,0,1,0,1,0,A,j,0,0,0,0,0,7,7,28,,,j,1,0.506151914597,0.818302869797,0.767212867737,0.818302869797,0.317402124405,0.251314163208,1.1357049942,0.167340993881,0.088593006134,1.30304598808,0.283673048019,0.217993021011,1.5867190361,0.334687948227,0.273007154465,1.92140698433,0.183070898056,0.103776216507,2.10447788239,0.384433984756,0.32217001915,2.48891186714,0.250811100006,0.187847852707,2.73972296715,0.198944091797,0.13238286972,2.93866705894,f,1,1.38670492172,None,None,0.184125900269,0.119080066681,3.12279295921,0.235604047775,0.156257867813,3.35839700699,0.316676855087,0.238760948181,3.67507386208,0.168166160583,0.0880491733551,3.84324002266,0.265336036682,0.203594923019,4.10857605934,0.503392934799,0.440702199936,4.61196899414,0.300158023834,0.240386009216,4.91212701797,0.384480953217,0.304804086685,5.29660797119,,,,,,,,,,,,,,,,,1,3,4,58.75650876590856,Dissertation,2018_Jul_18_2124,1,
Cuando el escultor volvió la obra estaba instalada en el parque,La obra era para el público.,Verdadero,Falso,f,0,129,incongruent_right,0,1,0,1,0,A,j,0,0,0,0,0,8,8,24,,,j,1,0.605244874954,0.633978843689,0.586157083511,0.633978843689,0.367819070816,0.305217027664,1.00179791451,0.199759960175,0.135402917862,1.20155787468,0.251498937607,0.205821990967,1.45305681229,0.317332983017,0.255419015884,1.7703897953,0.282684087753,0.218955039978,2.05307388306,0.385987043381,0.321841955185,2.43906092644,0.450865983963,0.387804985046,2.8899269104,0.416481971741,0.370314121246,3.30640888214,f,1,2.91341805458,None,None,0.385625123978,0.32125210762,3.69203400612,0.28422999382,0.221607923508,3.97626399994,,,,,,,,,,,,,,,,,,,,,,,,,,,,,,,,,,,1,3,4,58.75650876590856,Dissertation,2018_Jul_18_2124,1,
Siempre que la niña salta la cuerda le da por la cabeza,La niña se golpea cuando juega.,Verdadero,Falso,f,0,4,congruent_right,1,1,1,0,0,A,j,0,0,0,0,0,9,9,3,,,j,1,0.44006896019,0.581979036331,0.547348022461,0.581979036331,0.185461997986,0.137311935425,0.767441034317,0.38515996933,0.320159196854,1.15260100365,0.165515899658,0.104202032089,1.31811690331,0.184606075287,0.120509147644,1.50272297859,0.40163898468,0.356069803238,1.90436196327,0.416028022766,0.369014024734,2.32038998604,0.385369062424,0.338355064392,2.70575904846,0.383411884308,0.336838960648,3.08917093277,f,1,1.57166194916,None,None,0.185163974762,0.133744955063,3.27433490753,0.350723028183,0.286025762558,3.62505793571,0.2678129673,0.220991849899,3.89287090302,,,,,,,,,,,,,,,,,,,,,,,,,,,,,,,,1,3,4,58.75650876590856,Dissertation,2018_Jul_18_2124,1,
a,a,Verdadero,Falso,f,0,305,single_left,0,0,0,0,1,A,f,0,0,0,0,0,10,10,64,,,f,1,0.521692991257,,,,,,,,,,,,,,,,,,,,,,,,,,,,None,0,,None,None,,,,,,,,,,,,,,,,,,,,,,,,,,,,,,,,,,,,,,,,,1,3,4,58.75650876590856,Dissertation,2018_Jul_18_2124,1,
a,a,Verdadero,Falso,f,0,315,incongruent_right,0,0,0,1,0,A,j,0,0,0,0,0,11,11,74,,,j,1,0.487884998322,,,,,,,,,,,,,,,,,,,,,,,,,,,,None,0,,None,None,,,,,,,,,,,,,,,,,,,,,,,,,,,,,,,,,,,,,,,,,1,3,4,58.75650876590856,Dissertation,2018_Jul_18_2124,1,
a,a,Verdadero,Falso,f,0,301,single_left,0,0,0,0,1,A,f,0,0,0,0,0,12,12,60,,,f,1,0.424061059952,,,,,,,,,,,,,,,,,,,,,,,,,,,,None,0,,None,None,,,,,,,,,,,,,,,,,,,,,,,,,,,,,,,,,,,,,,,,,1,3,4,58.75650876590856,Dissertation,2018_Jul_18_2124,1,
a,a,Verdadero,Falso,f,0,303,congruent_left,0,0,1,0,0,A,f,0,0,0,0,0,13,13,62,,,f,1,0.388555049896,,,,,,,,,,,,,,,,,,,,,,,,,,,,None,0,,None,None,,,,,,,,,,,,,,,,,,,,,,,,,,,,,,,,,,,,,,,,,1,3,4,58.75650876590856,Dissertation,2018_Jul_18_2124,1,
Cuando Dora ganó la lotería se compró un reloj de diamantes,Dora ahorró todo el dinero que ganó. ,Verdadero,Falso,j,0,216,single_right,0,0,0,0,1,A,j,0,0,0,0,0,14,14,45,,,j,1,0.353627920151,0.716080904007,0.678237915039,0.716080904007,0.201578140259,0.154231071472,0.917659044266,0.299512863159,0.236346006393,1.21717190742,0.185554981232,0.138185977936,1.40272688866,0.333060026169,0.26991891861,1.73578691483,0.269068956375,0.217917919159,2.0048558712,0.483755111694,0.437796115875,2.48861098289,0.334524869919,0.287672042847,2.82313585281,0.267369031906,0.204277992249,3.09050488472,j,1,2.760420084,None,None,0.317417144775,0.272212982178,3.4079220295,0.351644992828,0.289144992828,3.75956702232,,,,,,,,,,,,,,,,,,,,,,,,,,,,,,,,,,,1,3,4,58.75650876590856,Dissertation,2018_Jul_18_2124,1,
Los chicos acomodaron la manta que sus padres les dejaron dentro del clóset antes de dormir,Los chicos no usaron la manta.,Verdadero,Falso,j,0,136,incongruent_left,0,1,0,1,0,A,f,0,0,0,0,0,15,15,27,,,f,1,0.50560593605,0.686000108719,0.639474868774,0.686000108719,0.367300987244,0.285197019577,1.05330109596,0.164893865585,0.101637125015,1.21819496155,0.251568078995,0.185839176178,1.46976304054,0.45188498497,0.384779930115,1.92164802551,0.200887918472,0.121587991714,2.12253594398,0.434127092361,0.355520963669,2.55666303635,0.350158929825,0.285805940628,2.90682196617,0.268175125122,0.183851957321,3.17499709129,j,1,2.21167707443,None,None,0.282441854477,0.217838048935,3.45743894577,0.21787405014,0.152122020721,3.67531299591,0.41836309433,0.333699941635,4.09367609024,0.218169927597,0.151703119278,4.31184601784,0.350593090057,0.284929037094,4.66243910789,0.418140888214,0.33848118782,5.08057999611,0.350003957748,0.286437988281,5.43058395386,,,,,,,,,,,,,,,,,,,,1,3,4,58.75650876590856,Dissertation,2018_Jul_18_2124,1,
Cuando la participante se rindió la respuesta le pareció obvia,La participante adivinó la respuesta correcta.,Verdadero,Falso,j,0,128,incongruent_left,0,1,0,1,0,A,f,0,0,0,0,0,16,16,23,,,f,1,0.569026947021,0.649486780167,0.614289045334,0.649486780167,0.368758201599,0.321420907974,1.01824498177,0.268014907837,0.204214096069,1.2862598896,0.266288042068,0.203397035599,1.55254793167,0.402065992355,0.354799985886,1.95461392403,0.301048994064,0.238508939743,2.25566291809,0.869220018387,0.807319879532,3.12488293648,0.484376907349,0.422001123428,3.60925984383,0.399851083755,0.338677167892,4.00911092758,j,1,2.04258799553,None,None,0.953840017319,0.88983297348,4.9629509449,,,,,,,,,,,,,,,,,,,,,,,,,,,,,,,,,,,,,,1,3,4,58.75650876590856,Dissertation,2018_Jul_18_2124,1,
Cuando usó mi carro Jorge lo aparcó muy mal,No le presto mi carro a nadie.,Verdadero,Falso,j,0,212,single_right,0,0,0,0,1,A,j,0,0,0,0,0,17,17,41,,,j,1,0.405600786209,0.718240976334,0.687730073929,0.718240976334,0.332947969437,0.28892993927,1.05118894577,0.150434970856,0.102748155594,1.20162391663,0.402001142502,0.35506606102,1.60362505913,0.265404939651,0.219102144241,1.86902999878,0.386211872101,0.322669029236,2.25524187088,0.351062059402,0.307065010071,2.60630393028,0.332419157028,0.287068128586,2.93872308731,0.402637958527,0.355237007141,3.34136104584,j,1,1.77642583847,None,None,,,,,,,,,,,,,,,,,,,,,,,,,,,,,,,,,,,,,,,,,1,3,4,58.75650876590856,Dissertation,2018_Jul_18_2124,1,
a,a,Verdadero,Falso,f,0,314,single_left,0,0,0,0,1,A,f,0,0,0,0,0,18,18,73,,,f,1,0.524032831192,,,,,,,,,,,,,,,,,,,,,,,,,,,,None,0,,None,None,,,,,,,,,,,,,,,,,,,,,,,,,,,,,,,,,,,,,,,,,1,3,4,58.75650876590856,Dissertation,2018_Jul_18_2124,1,
a,a,Verdadero,Falso,f,0,304,congruent_right,0,0,1,0,0,A,j,0,0,0,0,0,19,19,63,,,j,1,0.37499499321,,,,,,,,,,,,,,,,,,,,,,,,,,,,None,0,,None,None,,,,,,,,,,,,,,,,,,,,,,,,,,,,,,,,,,,,,,,,,1,3,4,58.75650876590856,Dissertation,2018_Jul_18_2124,1,
Las flores en mi apartamento hacen que la sala brille,No tengo plantas en mi apartamento por mis alergias.,Verdadero,Falso,j,0,224,single_right,0,0,0,0,1,A,j,0,0,0,0,0,20,20,53,,,j,1,0.371712207794,0.750607013702,0.718673944473,0.750607013702,0.368848085403,0.321484088898,1.11945509911,0.267352104187,0.221704006195,1.38680720329,0.28356385231,0.236191034317,1.6703710556,0.250906944275,0.189039945602,1.92127799988,0.417503118515,0.356372117996,2.33878111839,0.350516080856,0.304695129395,2.68929719925,0.350968837738,0.287098884583,3.04026603699,0.200133085251,0.151459932327,3.24039912224,j,1,1.47451496124,None,None,0.335529088974,0.288166046143,3.57592821121,,,,,,,,,,,,,,,,,,,,,,,,,,,,,,,,,,,,,,1,3,4,58.75650876590856,Dissertation,2018_Jul_18_2124,1,
El empleado guardó los archivos que recibió en una carpeta después de revisarlos,El empleado tiró los documentos.,Verdadero,Falso,j,0,132,incongruent_left,0,1,0,1,0,A,f,0,0,0,0,0,21,21,25,,,f,1,0.500776052475,0.667849063873,0.617577075958,0.667849063873,0.250403881073,0.184656858444,0.918252944946,0.18200302124,0.118783950806,1.10025596619,0.353132963181,0.288679838181,1.45338892937,0.233239173889,0.172951936722,1.68662810326,0.250174999237,0.187537908554,1.93680310249,0.335394859314,0.268371105194,2.27219796181,0.267269134521,0.207388877869,2.53946709633,0.217139005661,0.138068199158,2.75660610199,j,1,1.25652503967,None,None,0.233822822571,0.169188976288,2.99042892456,0.233814954758,0.170408964157,3.22424387932,0.234918117523,0.173593997955,3.45916199684,0.415570020676,0.336555957794,3.87473201752,,,,,,,,,,,,,,,,,,,,,,,,,,,,,1,3,4,58.75650876590856,Dissertation,2018_Jul_18_2124,1,
Cuando los jardineros terminaron el jardín quedó lleno de flores,Los jardineros todavía no acaban su trabajo.,Verdadero,Falso,j,1,10,incongruent_left,1,1,0,1,0,A,f,0,0,0,0,0,22,22,9,,,f,1,0.472669124603,0.615644931793,0.573426961899,0.615644931793,0.368884086609,0.301289081573,0.984529018402,0.217381954193,0.170730113983,1.2019109726,0.33468914032,0.273436784744,1.53660011292,0.349730014801,0.285464048386,1.88633012772,0.352218866348,0.305095911026,2.23854899406,0.216547012329,0.154945850372,2.45509600639,0.433926105499,0.369554042816,2.88902211189,0.301780939102,0.255471229553,3.19080305099,j,1,2.39571499825,None,None,0.267910957336,0.205095052719,3.45871400833,,,,,,,,,,,,,,,,,,,,,,,,,,,,,,,,,,,,,,1,3,4,58.75650876590856,Dissertation,2018_Jul_18_2124,1,
Los autobuses en Madrid tienen más de quince pies de altura ,Los autobuses madrileños son muy altos.,Verdadero,Falso,f,0,225,congruent_left,0,0,1,0,0,A,f,0,0,0,0,0,23,23,54,,,f,1,0.438436985016,0.632399082184,0.595819950104,0.632399082184,0.286289930344,0.239113092422,0.918689012527,0.215950965881,0.151484966278,1.13463997841,0.368582963943,0.321452856064,1.50322294235,0.184484004974,0.121747016907,1.68770694733,0.383319139481,0.338907003403,2.07102608681,0.250723838806,0.188488960266,2.32174992561,0.384442090988,0.321577072144,2.7061920166,0.334309101105,0.287619113922,3.04050111771,f,1,2.72694683075,None,None,0.332799911499,0.267655134201,3.37330102921,0.302864074707,0.254546880722,3.67616510391,,,,,,,,,,,,,,,,,,,,,,,,,,,,,,,,,,,1,3,4,58.75650876590856,Dissertation,2018_Jul_18_2124,1,
a,a,Verdadero,Falso,f,0,307,congruent_left,0,0,1,0,0,A,f,0,0,0,0,0,24,24,66,,,f,1,0.622445821762,,,,,,,,,,,,,,,,,,,,,,,,,,,,None,0,,None,None,,,,,,,,,,,,,,,,,,,,,,,,,,,,,,,,,,,,,,,,,1,3,4,58.75650876590856,Dissertation,2018_Jul_18_2124,1,
Cuando era niña Inés saltaba la cuerda mucho ,Inés sabe saltar la cuerda.,Verdadero,Falso,f,0,211,congruent_right,0,0,1,0,0,A,j,0,0,0,0,0,25,25,40,,,j,1,0.405811071396,0.667063951492,0.62747502327,0.667063951492,0.251107215881,0.204653024673,0.918171167374,0.284346818924,0.238222837448,1.2025179863,0.267068147659,0.222335100174,1.46958613396,0.450697898865,0.389100074768,1.92028403282,0.267771959305,0.22089600563,2.18805599213,0.233644008636,0.183855772018,2.42170000076,0.366264104843,0.319901943207,2.78796410561,,,,j,0,2.35939598083,None,None,,,,,,,,,,,,,,,,,,,,,,,,,,,,,,,,,,,,,,,,,1,3,4,58.75650876590856,Dissertation,2018_Jul_18_2124,1,
a,a,Verdadero,Falso,f,0,312,congruent_right,0,0,1,0,0,A,j,0,0,0,0,0,26,26,71,,,j,1,0.535775899887,,,,,,,,,,,,,,,,,,,,,,,,,,,,None,0,,None,None,,,,,,,,,,,,,,,,,,,,,,,,,,,,,,,,,,,,,,,,,1,3,4,58.75650876590856,Dissertation,2018_Jul_18_2124,1,
a,a,Verdadero,Falso,f,0,309,single_left,0,0,0,0,1,A,f,0,0,0,0,0,27,27,68,,,f,1,0.388785123825,,,,,,,,,,,,,,,,,,,,,,,,,,,,None,0,,None,None,,,,,,,,,,,,,,,,,,,,,,,,,,,,,,,,,,,,,,,,,1,3,4,58.75650876590856,Dissertation,2018_Jul_18_2124,1,
Mi hermana guardó en su celular el número del chico guapo,A mi hermana le gustaría salir con el chico.,Verdadero,Falso,f,0,208,single_right,0,0,0,0,1,A,j,0,0,0,0,0,28,28,37,,,j,1,0.387594938278,0.733591079712,0.688761949539,0.733591079712,0.234261035919,0.188905954361,0.967852115631,0.200417995453,0.137800931931,1.16827011108,0.183593034744,0.137204170227,1.35186314583,0.351540803909,0.288429021835,1.70340394974,0.217447042465,0.153715133667,1.9208509922,0.267831087112,0.222752094269,2.18868207932,0.366550922394,0.304004907608,2.55523300171,0.283797979355,0.221408843994,2.83903098106,j,0,1.97437787056,space,None,0.28383398056,0.216858863831,3.12286496162,0.233466148376,0.168060779572,3.35633111,,,,,,,,,,,,,,,,,,,1.89396214485,,,,,,,,,,,,,,,,1,3,4,58.75650876590856,Dissertation,2018_Jul_18_2124,1,
La familia tenía una mesa antigua en el porche de su casa,La mesa antigua está en el comedor.,Verdadero,Falso,j,0,201,congruent_left,0,0,1,0,0,A,f,0,0,0,0,0,29,29,30,,,f,1,0.523286104202,0.853204965591,0.805150985718,0.853204965591,0.332918167114,0.289182186127,1.18612313271,0.200500011444,0.154815912247,1.38662314415,0.38282585144,0.33537197113,1.76944899559,0.267644166946,0.218314886093,2.03709316254,0.251186847687,0.202874898911,2.28828001022,0.43629693985,0.389465093613,2.72457695007,0.282394170761,0.220185995102,3.00697112083,0.218122959137,0.154633045197,3.22509407997,j,1,1.4700319767,None,None,0.26732301712,0.205603837967,3.49241709709,0.385555028915,0.322284936905,3.87797212601,0.250267028809,0.206133842468,4.12823915482,,,,,,,,,,,,,,,,,,,,,,,,,,,,,,,,1,3,4,58.75650876590856,Dissertation,2018_Jul_18_2124,1,
Paco dejó los pantalones que compró en la tienda en su cuarto cuando volvió,A Paco los pantalones se le quedaron en la tienda.,Verdadero,Falso,j,1,11,incongruent_right,1,1,0,1,0,A,j,0,0,0,0,0,30,30,10,,,j,1,0.472167015076,0.682528018951,0.63932800293,0.682528018951,0.369822978973,0.302448034286,1.05235099792,0.167001962662,0.102023839951,1.21935296059,0.266669034958,0.204713821411,1.48602199554,0.251268148422,0.171235084534,1.73729014397,0.384213924408,0.317619085312,2.12150406837,0.283705949783,0.222037792206,2.40521001816,0.184405088425,0.12092590332,2.58961510658,0.183480024338,0.122245073318,2.77309513092,j,1,2.44594788551,None,None,0.25048494339,0.186991930008,3.02358007431,0.234346866608,0.168044805527,3.25792694092,0.283392190933,0.220311164856,3.54131913185,0.485026836395,0.421266078949,4.02634596825,0.399194955826,0.334636926651,4.42554092407,,,,,,,,,,,,,,,,,,,,,,,,,,1,3,4,58.75650876590856,Dissertation,2018_Jul_18_2124,1,
a,a,Verdadero,Falso,f,0,313,incongruent_left,0,0,0,1,0,A,f,0,0,0,0,0,31,31,72,,,f,1,0.504878997803,,,,,,,,,,,,,,,,,,,,,,,,,,,,None,0,,None,None,,,,,,,,,,,,,,,,,,,,,,,,,,,,,,,,,,,,,,,,,1,3,4,58.75650876590856,Dissertation,2018_Jul_18_2124,1,
Mi mamá guardó la escultura que hizo en la clase en su mesa de trabajo,La escultura está en mi estudio de arte.,Verdadero,Falso,j,1,14,incongruent_left,1,1,0,1,0,A,f,0,0,0,0,0,32,32,13,,,f,1,0.405102968216,0.733544826508,0.693339109421,0.733544826508,0.318521976471,0.271911859512,1.05206680298,0.150278091431,0.0873401165009,1.20234489441,0.283854961395,0.219784975052,1.4861998558,0.216194152832,0.168406009674,1.70239400864,0.201690912247,0.13778591156,1.90408492088,0.38471198082,0.322032928467,2.2887969017,0.267935991287,0.205322027206,2.55673289299,0.249650001526,0.187274932861,2.80638289452,j,1,1.97285103798,None,None,0.182876110077,0.118303060532,2.98925900459,0.41972899437,0.368926048279,3.40898799896,0.449397802353,0.386785030365,3.85838580132,0.519364118576,0.455829143524,4.37774991989,0.399728059769,0.337359905243,4.77747797966,0.401901006699,0.333596944809,5.17937898636,,,,,,,,,,,,,,,,,,,,,,,1,3,4,58.75650876590856,Dissertation,2018_Jul_18_2124,1,
El pastel en el refrigerador es para el cumpleaños de Tomás,Tomás no cumple años pronto.,Verdadero,Falso,j,0,207,congruent_right,0,0,1,0,0,A,j,0,0,0,0,0,33,33,36,,,j,1,0.605907917023,0.617277145386,0.573953866959,0.617277145386,0.350872993469,0.304609060287,0.968150138855,0.167366027832,0.122843980789,1.13551616669,0.350737810135,0.284688949585,1.48625397682,0.150269985199,0.105051994324,1.63652396202,0.23438501358,0.184772014618,1.8709089756,0.484798192978,0.421774864197,2.35570716858,0.367759943008,0.319354057312,2.72346711159,0.300642967224,0.240003108978,3.02411007881,j,1,2.50745916367,None,None,0.417888879776,0.355539798737,3.44199895859,0.334480047226,0.289736032486,3.77647900581,,,,,,,,,,,,,,,,,,,,,,,,,,,,,,,,,,,1,3,4,58.75650876590856,Dissertation,2018_Jul_18_2124,1,
Mientras el maestro descansaba el violín resonaba por todo el salón,El maestro tocaba el piano.,Verdadero,Falso,j,0,125,incongruent_right,0,1,0,1,0,A,j,0,0,0,0,0,34,34,22,,,j,1,0.486093997955,0.685317993164,0.649132013321,0.685317993164,0.434587001801,0.369844913483,1.11990499496,0.249589204788,0.184344053268,1.36949419975,0.301805973053,0.234613895416,1.67130017281,0.333600997925,0.27191901207,2.00490117073,0.518271923065,0.4732401371,2.5231730938,0.635273933411,0.572740077972,3.15844702721,0.58323597908,0.520376205444,3.74168300629,0.385066986084,0.33770608902,4.12674999237,j,1,1.64191603661,None,None,0.419150114059,0.354754924774,4.54590010643,0.31764793396,0.254643917084,4.86354804039,,,,,,,,,,,,,,,,,,,,,,,,,,,,,,,,,,,1,3,4,58.75650876590856,Dissertation,2018_Jul_18_2124,1,
Este año cuando se reunieron el grito sonó por todo el vecindario,Hicieron un escándalo cuando se vieron.,Verdadero,Falso,f,0,124,incongruent_left,0,1,0,1,0,A,f,0,0,0,0,0,35,35,21,,,f,1,0.439127922058,0.633133888245,0.594238996506,0.633133888245,0.368827104568,0.301076889038,1.00196099281,0.266736984253,0.217224121094,1.26869797707,0.349639892578,0.303032159805,1.61833786964,0.319802045822,0.255843877792,1.93813991547,0.367182016373,0.304793834686,2.30532193184,0.367424964905,0.3058989048,2.67274689674,0.568421125412,0.501436948776,3.24116802216,0.618188858032,0.554196119308,3.85935688019,f,1,1.90572810173,None,None,0.46741604805,0.400729894638,4.32677292824,0.485666036606,0.423717021942,4.81243896484,0.451384067535,0.387214899063,5.26382303238,,,,,,,,,,,,,,,,,,,,,,,,,,,,,,,,1,3,4,58.75650876590856,Dissertation,2018_Jul_18_2124,1,
María acomodó las revistas que Gabriela dejó bajo la cama en el librero cuando las encontró,Las revistas de Gabriela están escondidas bajo la cama.,Verdadero,Falso,j,1,15,incongruent_right,1,1,0,1,0,A,j,0,0,0,0,0,36,36,14,,,j,1,0.454626083374,0.668706893921,0.615235090256,0.668706893921,0.401206016541,0.339511871338,1.06991291046,0.234089136124,0.171633958817,1.30400204659,0.417541027069,0.354702949524,1.72154307365,0.43307185173,0.351574897766,2.15461492538,0.336027145386,0.271739959717,2.49064207077,0.283305883408,0.202433109283,2.77394795418,0.636196136475,0.569720029831,3.41014409065,0.266726016998,0.205178022385,3.67687010765,j,1,2.56021690369,None,None,0.401055812836,0.339349985123,4.07792592049,0.299957990646,0.216741085052,4.37788391113,0.268455982208,0.201503992081,4.64633989334,0.249451160431,0.183516025543,4.89579105377,0.417917966843,0.353554010391,5.31370902061,0.285265922546,0.217955112457,5.59897494316,0.367568016052,0.304751873016,5.96654295921,,,,,,,,,,,,,,,,,,,,1,3,4,58.75650876590856,Dissertation,2018_Jul_18_2124,1,
Mi hija pintó el cuadro que está en la pared de mi oficina,Tengo arte colgado en mi oficina.,Verdadero,Falso,f,0,219,congruent_right,0,0,1,0,0,A,j,0,0,0,0,0,37,37,48,,,j,1,0.471293926239,1.0699570179,1.03578495979,1.0699570179,0.367136001587,0.32044506073,1.43709301949,0.250505924225,0.203160047531,1.68759894371,0.283578872681,0.21950507164,1.97117781639,0.302945137024,0.256237030029,2.27412295341,0.250352859497,0.187655925751,2.52447581291,0.384362220764,0.322265863419,2.90883803368,0.250607967377,0.189548969269,3.15944600105,0.450943946838,0.38981294632,3.61038994789,f,1,2.12337207794,None,space,0.216868877411,0.171350955963,3.8272588253,0.383394002914,0.33519411087,4.21065282822,0.250324010849,0.201505184174,4.46097683907,0.368791103363,0.319375991821,4.82976794243,,,,,,,,,,,,,,2.27741098404,,,,,,,,,,,,,,,1,3,4,58.75650876590856,Dissertation,2018_Jul_18_2124,1,
a,a,Verdadero,Falso,f,0,306,single_right,0,0,0,0,1,A,j,0,0,0,0,0,38,38,65,,,j,1,0.488837003708,,,,,,,,,,,,,,,,,,,,,,,,,,,,None,0,,None,None,,,,,,,,,,,,,,,,,,,,,,,,,,,,,,,,,,,,,,,,,1,3,4,58.75650876590856,Dissertation,2018_Jul_18_2124,1,
La computadora de Jessica falla con frecuencia,Jessica necesita consultar con un técnico.,Verdadero,Falso,f,0,217,congruent_left,0,0,1,0,0,A,f,0,0,0,0,0,39,39,46,,,f,1,0.352922916412,0.786154031754,0.760142087936,0.786154031754,0.300551176071,0.255365848541,1.08670520782,0.250832796097,0.205028057098,1.33753800392,0.267554044724,0.221255064011,1.60509204865,0.301099061966,0.238523006439,1.90619111061,0.34889292717,0.302339792252,2.25508403778,0.318933010101,0.271118164062,2.57401704788,,,,,,,f,1,2.54470491409,None,None,,,,,,,,,,,,,,,,,,,,,,,,,,,,,,,,,,,,,,,,,1,3,4,58.75650876590856,Dissertation,2018_Jul_18_2124,1,
La pantalla de mi computadora se me rompió,Mi computadora está en una condición perfecta.,Verdadero,Falso,j,0,221,incongruent_left,0,0,0,1,0,A,f,0,0,0,0,0,40,40,50,,,f,1,0.472710132599,0.634088993073,0.602147102356,0.634088993073,0.267107009888,0.219768047333,0.90119600296,0.200521945953,0.153244018555,1.10171794891,0.351002931595,0.288109064102,1.45272088051,0.21689915657,0.170407056808,1.66962003708,0.184537887573,0.13788485527,1.85415792465,0.433813095093,0.387765884399,2.28797101974,0.318148851395,0.255041122437,2.60611987114,,,,j,1,1.35554814339,None,None,,,,,,,,,,,,,,,,,,,,,,,,,,,,,,,,,,,,,,,,,1,3,4,58.75650876590856,Dissertation,2018_Jul_18_2124,1,
Los novios montaron la mesa que su amigo les dejó en su porche en la cocina de su nuevo apartamento ,Los novios pusieron la mesa en su porche.,Verdadero,Falso,j,1,18,incongruent_left,1,1,0,1,0,A,f,0,0,0,0,0,41,41,17,,,f,1,0.505747079849,0.600929021835,0.539067983627,0.600929021835,0.250731945038,0.170803785324,0.851660966873,0.200500011444,0.120812892914,1.05216097832,0.267755031586,0.188824176788,1.3199160099,0.433642864227,0.353926897049,1.75355887413,0.300992012024,0.220616102219,2.05455088615,0.684556007385,0.620761871338,2.73910689354,0.517987966537,0.404726982117,3.25709486008,0.467633962631,0.385651111603,3.72472882271,j,1,2.31092000008,None,None,0.436187982559,0.322201013565,4.16091680527,0.484344005585,0.4059009552,4.64526081085,0.484460115433,0.404032945633,5.12972092628,0.351573944092,0.272053956985,5.48129487038,0.567427158356,0.486145973206,6.04872202873,0.936164855957,0.873820066452,6.98488688469,0.451122999191,0.371688127518,7.43600988388,0.533365011215,0.436836004257,7.9693748951,,,0.786056041718,0.704534053802,8.75543093681,0.48530292511,0.404372930527,9.24073386192,0.501376152039,0.406410932541,9.74211001396,,,,,,1,3,4,58.75650876590856,Dissertation,2018_Jul_18_2124,1,
Cuando mi madre lavaba la ropa quedaba muy limpia,Mi madre me ayuda con el lavado de ropa.,Verdadero,Falso,f,0,8,congruent_right,1,1,1,0,0,A,j,0,0,0,0,0,42,42,7,,,j,1,0.505895853043,0.584272146225,0.555139780045,0.584272146225,0.36660695076,0.3188560009,0.950879096985,0.369277000427,0.32136797905,1.32015609741,0.366490840912,0.316676139832,1.68664693832,0.435717105865,0.388212203979,2.12236404419,0.801654100418,0.757019996643,2.92401814461,0.485190868378,0.419304847717,3.40920901299,0.751538038254,0.708236932755,4.16074705124,0.418365001678,0.356970071793,4.57911205292,f,1,3.98019599915,None,None,,,,,,,,,,,,,,,,,,,,,,,,,,,,,,,,,,,,,,,,,1,3,4,58.75650876590856,Dissertation,2018_Jul_18_2124,1,
El mecánico estará de vacaciones solo unos días,El mecánico viaja solo.,Verdadero,Falso,f,0,230,single_left,0,0,0,0,1,A,f,0,0,0,0,0,43,43,59,,,f,1,0.373808860779,0.550012111664,0.517852067947,0.550012111664,0.367587089539,0.322350978851,0.917599201202,0.485400915146,0.439162015915,1.40300011635,0.400336027145,0.355646133423,1.80333614349,0.351567029953,0.287811040878,2.15490317345,0.567224025726,0.521752119064,2.72212719917,0.435532808304,0.38543009758,3.15766000748,0.367501974106,0.323403835297,3.52516198158,,,,j,0,1.40740513802,None,None,,,,,,,,,,,,,,,,,,,,,,,,,,,,,,,,,,,,,,,,,1,3,4,58.75650876590856,Dissertation,2018_Jul_18_2124,1,
a,a,Verdadero,Falso,f,0,311,congruent_left,0,0,1,0,0,A,f,0,0,0,0,0,44,44,70,,,f,1,0.624523878098,,,,,,,,,,,,,,,,,,,,,,,,,,,,None,0,,None,None,,,,,,,,,,,,,,,,,,,,,,,,,,,,,,,,,,,,,,,,,1,3,4,58.75650876590856,Dissertation,2018_Jul_18_2124,1,
Ana vació el lavaplatos en la cocina,Ana no ayudó con los quehaceres.,Verdadero,Falso,j,0,206,single_left,0,0,0,0,1,A,f,0,0,0,0,0,45,45,35,,,f,1,0.31013584137,0.666707038879,0.638403892517,0.666707038879,0.317102909088,0.254925012589,0.983809947968,0.301411151886,0.239494800568,1.28522109985,0.467983007431,0.404346942902,1.75320410728,0.483842849731,0.419830083847,2.23704695702,0.284186124802,0.237421989441,2.52123308182,0.286087989807,0.224231004715,2.80732107162,,,,,,,j,1,1.43667602539,None,None,,,,,,,,,,,,,,,,,,,,,,,,,,,,,,,,,,,,,,,,,1,3,4,58.75650876590856,Dissertation,2018_Jul_18_2124,1,
Los alumnos metieron la prueba que la maestra les dio en sus bolsas antes de irse,La maestra se quedó con las pruebas.,Verdadero,Falso,j,0,140,incongruent_left,0,1,0,1,0,A,f,0,0,0,0,0,46,46,29,,,f,1,0.422585010529,0.684992074966,0.629889011383,0.684992074966,0.216916799545,0.154643058777,0.901908874512,0.150750160217,0.0883598327637,1.05265903473,0.367186069489,0.287926912308,1.41984510422,0.2674908638,0.203866004944,1.68733596802,0.217900037766,0.155783891678,1.90523600578,0.367426872253,0.305261850357,2.27266287804,0.651944160461,0.57057595253,2.9246070385,0.517633914948,0.45489192009,3.44224095345,j,1,1.37489700317,None,None,0.433009147644,0.368675947189,3.87525010109,0.451790809631,0.386564970016,4.32704091072,0.419167041779,0.339287042618,4.7462079525,0.333523035049,0.270695924759,5.07973098755,0.299515962601,0.217638015747,5.37924695015,0.467555999756,0.399283885956,5.84680294991,0.302237033844,0.237964868546,6.14903998375,,,,,,,,,,,,,,,,,,,,1,3,4,58.75650876590856,Dissertation,2018_Jul_18_2124,1,
El pescado está listo para comer,Vamos a comer pescado.,Verdadero,Falso,f,0,229,congruent_left,0,0,1,0,0,A,f,0,0,0,0,0,47,47,58,,,f,1,0.624374866486,0.667723894119,0.64609503746,0.667723894119,0.133498907089,0.0872328281403,0.801222801208,0.383902072906,0.339273929596,1.18512487411,0.268476009369,0.221696853638,1.45360088348,0.266129016876,0.220772027969,1.71972990036,0.367329120636,0.321382045746,2.087059021,,,,,,,,,,f,1,1.19091510773,None,None,,,,,,,,,,,,,,,,,,,,,,,,,,,,,,,,,,,,,,,,,1,3,4,58.75650876590856,Dissertation,2018_Jul_18_2124,1,
Mi padre me partió el sándwich en dos para llevarlo a clase,Me compré la comida en la escuela. ,Verdadero,Falso,f,0,222,single_left,0,0,0,0,1,A,f,0,0,0,0,0,48,48,51,,,f,1,0.422639131546,0.616641044617,0.582445859909,0.616641044617,0.185287952423,0.121000051498,0.80192899704,0.350306034088,0.288644790649,1.15223503113,0.552176952362,0.502267837524,1.70441198349,0.349506855011,0.300915956497,2.0539188385,0.384121179581,0.318182945251,2.43804001808,0.401113986969,0.354475021362,2.83915400505,0.335244894028,0.271311998367,3.17439889908,0.384752988815,0.33965921402,3.55915188789,j,0,1.52403402328,None,None,0.400143146515,0.338078975677,3.95929503441,0.268705844879,0.222015142441,4.22800087929,0.416177988052,0.371016979218,4.64417886734,,,,,,,,,,,,,,,,,,,,,,,,,,,,,,,,1,3,4,58.75650876590856,Dissertation,2018_Jul_18_2124,1,
El mecánico arregló el carro rápido,El mécanico trabaja de una manera eficiente.,Verdadero,Falso,f,0,227,incongruent_right,0,0,0,1,0,A,j,0,0,0,0,0,49,49,56,,,j,1,0.609899044037,0.750694990158,0.723047971725,0.750694990158,0.349689006805,0.30430316925,1.10038399696,0.200889825821,0.152306079865,1.30127382278,0.484369039536,0.452378988266,1.78564286232,0.267101049423,0.218523979187,2.05274391174,0.353182077408,0.3224401474,2.40592598915,,,,,,,,,,f,1,1.94072890282,None,None,,,,,,,,,,,,,,,,,,,,,,,,,,,,,,,,,,,,,,,,,1,3,4,58.75650876590856,Dissertation,2018_Jul_18_2124,1,
La profesora dejó la galleta que compró en el mercado en su cartera durante la clase,La galleta estaba en la cartera durante la clase.,Verdadero,Falso,f,0,13,congruent_left,1,1,1,0,0,A,f,0,0,0,0,0,50,50,12,,,f,1,0.51097202301,0.734318971634,0.639742851257,0.734318971634,0.134224891663,0.0209770202637,0.868543863297,0.468011140823,0.371781110764,1.33655500412,0.249552965164,0.155288934708,1.58610796928,0.317936897278,0.237691879272,1.90404486656,0.368920087814,0.256234884262,2.27296495438,0.299374103546,0.203855991364,2.57233905792,0.31733083725,0.249945878983,2.88966989517,0.335941076279,0.273021221161,3.22561097145,f,1,1.69283986092,None,None,0.233963012695,0.156172037125,3.45957398415,0.200053930283,0.13538312912,3.65962791443,0.367918968201,0.289910078049,4.02754688263,0.250954151154,0.171113967896,4.27850103378,0.24998497963,0.170683860779,4.52848601341,0.534267902374,0.453125,5.06275391579,0.282880067825,0.218754053116,5.34563398361,,,,,,,,,,,,,,,,,,,,1,3,4,58.75650876590856,Dissertation,2018_Jul_18_2124,1,
Los trabajadores colocaron los avisos que su jefe les dejó en la carpeta en la puerta de la oficina,Los avisos están colgados en la puerta.,Verdadero,Falso,f,0,20,congruent_right,1,1,1,0,0,A,j,0,0,0,0,0,51,51,19,,,j,1,0.456911087036,0.701815128326,0.596410036087,0.701815128326,0.150724887848,0.0213620662689,0.852540016174,0.283601999283,0.152767181396,1.13614201546,0.38460111618,0.254045009613,1.52074313164,0.41827082634,0.287811040878,1.93901395798,0.434098005295,0.320636987686,2.37311196327,0.451470136642,0.372056007385,2.82458209991,0.450999975204,0.37003493309,3.27558207512,0.434166908264,0.320396184921,3.70974898338,f,1,1.8882329464,None,None,0.351342201233,0.254462957382,4.06109118462,0.4343957901,0.350697040558,4.49548697472,0.317636013031,0.237636089325,4.81312298775,0.452871084213,0.355670928955,5.26599407196,0.36750793457,0.290189027786,5.63350200653,0.367019176483,0.28514790535,6.00052118301,0.266823768616,0.187021017075,6.26734495163,0.53355717659,0.452991962433,6.80090212822,,,0.702497005463,0.620287895203,7.50339913368,0.418432950974,0.321768045425,7.92183208466,,,,,,,,,1,3,4,58.75650876590856,Dissertation,2018_Jul_18_2124,1,
a,a,Verdadero,Falso,f,0,302,single_right,0,0,0,0,1,A,j,0,0,0,0,0,52,52,61,,,j,1,0.50425696373,,,,,,,,,,,,,,,,,,,,,,,,,,,,None,0,,None,None,,,,,,,,,,,,,,,,,,,,,,,,,,,,,,,,,,,,,,,,,1,3,4,58.75650876590856,Dissertation,2018_Jul_18_2124,1,
Después de que llegué el maratón empezó inmediatamente,Llegué para ver el inicio de la carrera.,Verdadero,Falso,f,0,121,incongruent_right,0,1,0,1,0,A,j,0,0,0,0,0,53,53,20,,,j,1,0.522667884827,0.683226108551,0.649888038635,0.683226108551,0.401656866074,0.353509902954,1.08488297462,0.267655134201,0.217586040497,1.35253810883,0.283840894699,0.239461183548,1.63637900352,0.401712179184,0.335792064667,2.03809118271,0.434705972672,0.389330863953,2.47279715538,0.667994022369,0.6052069664,3.14079117775,0.501448869705,0.435699939728,3.64224004745,,,,f,1,2.67760205269,None,None,,,,,,,,,,,,,,,,,,,,,,,,,,,,,,,,,,,,,,,,,1,3,4,58.75650876590856,Dissertation,2018_Jul_18_2124,1,
El cocinero lava las verduras en el fregadero,El cocinero prepara las verduras él mismo.,Verdadero,Falso,f,0,204,single_right,0,0,0,0,1,A,j,0,0,0,0,0,54,54,33,,,j,1,0.522979021072,0.701462984085,0.669143915176,0.701462984085,0.350790023804,0.304888010025,1.05225300789,0.517461061478,0.472674131393,1.56971406937,0.484802007675,0.440494060516,2.05451607704,0.384380102158,0.335528850555,2.4388961792,0.484800815582,0.43527507782,2.92369699478,0.367169141769,0.321785926819,3.29086613655,0.383255958557,0.335139989853,3.67412209511,,,,f,1,4.93307209015,None,None,,,,,,,,,,,,,,,,,,,,,,,,,,,,,,,,,,,,,,,,,1,3,4,58.75650876590856,Dissertation,2018_Jul_18_2124,1,
Después de lavar la ropa Antonio prepara la cena,Antonio hace varios deberes por la noche.,Verdadero,Falso,j,0,215,incongruent_right,0,0,0,1,0,A,j,0,0,0,0,0,55,55,44,,,j,1,0.671415090561,0.719069004059,0.680016994476,0.719069004059,0.449275970459,0.402069091797,1.16834497452,0.267892122269,0.206624031067,1.43623709679,0.300713062286,0.219265937805,1.73695015907,0.418776988983,0.371340036392,2.15572714806,0.333333015442,0.288573980331,2.4890601635,0.385334968567,0.338157892227,2.87439513206,0.401239871979,0.356031179428,3.27563500404,0.334702968597,0.288479804993,3.61033797264,j,1,1.95763206482,None,None,,,,,,,,,,,,,,,,,,,,,,,,,,,,,,,,,,,,,,,,,1,3,4,58.75650876590856,Dissertation,2018_Jul_18_2124,1,
Los estudiantes hicieron el trabajo en equipo en la biblioteca,Los estudiantes hicieron la tarea en el café.,Verdadero,Falso,j,0,202,single_left,0,0,0,0,1,A,f,0,0,0,0,0,56,56,31,,,f,1,0.506029844284,0.633262872696,0.595934152603,0.633262872696,0.318374156952,0.267821788788,0.951637029648,0.267699956894,0.22252702713,1.21933698654,0.383868932724,0.320051908493,1.60320591927,0.266416072845,0.203428030014,1.86962199211,0.484098911285,0.419704198837,2.3537209034,0.251621961594,0.188009023666,2.60534286499,0.335227012634,0.268485069275,2.94056987762,0.334292173386,0.289263963699,3.27486205101,j,1,1.67355895042,None,None,0.283645868301,0.222596883774,3.55850791931,,,,,,,,,,,,,,,,,,,,,,,,,,,,,,,,,,,,,,1,3,4,58.75650876590856,Dissertation,2018_Jul_18_2124,1,
Mis hijas están saltando la cuerda en el jardín,A mis hijas no les gusta jugar en el jardín.,Verdadero,Falso,j,0,226,single_left,0,0,0,0,1,A,f,0,0,0,0,0,57,57,55,,,f,1,0.49175786972,0.684209823608,0.630852937698,0.684209823608,0.151363134384,0.103721857071,0.835572957993,0.402196884155,0.355148077011,1.23776984215,0.316596984863,0.25576710701,1.55436682701,0.301990032196,0.252116203308,1.85635685921,0.382578134537,0.304546117783,2.23893499374,0.41815495491,0.335547924042,2.65708994865,0.401291847229,0.354393005371,3.05838179588,0.383319139481,0.332708120346,3.44170093536,j,1,1.89009904861,None,None,,,,,,,,,,,,,,,,,,,,,,,,,,,,,,,,,,,,,,,,,1,3,4,58.75650876590856,Dissertation,2018_Jul_18_2124,1,
Jaime metió el chaleco que su pareja dejó en el clóset cuando regresaron,La pareja de Jaime no colgó su chaleco cuando volvió. ,Verdadero,Falso,f,0,133,incongruent_right,0,1,0,1,0,A,j,0,0,0,0,0,58,58,26,,,j,1,0.521832942963,0.651299953461,0.604760885239,0.651299953461,0.283883094788,0.216900110245,0.935183048248,0.284399986267,0.239451885223,1.21958303452,0.282831907272,0.203091144562,1.50241494179,0.267683029175,0.203351020813,1.77009797096,0.335042953491,0.271806955338,2.10514092445,0.334917068481,0.271264076233,2.44005799294,0.283478021622,0.223325967789,2.72353601456,0.282095909119,0.218683958054,3.00563192368,j,0,2.26014113426,None,None,0.251320123672,0.185235977173,3.25695204735,0.568802833557,0.503729820251,3.82575488091,0.368564128876,0.285901069641,4.19431900978,0.518373012543,0.457504987717,4.71269202232,,,,,,,,,,,,,,,,,,,,,,,,,,,,,1,3,4,58.75650876590856,Dissertation,2018_Jul_18_2124,1,
Mientras el padre leía la biblia antigua se partió en dos ,La biblia se quedó intacta.,Verdadero,Falso,j,1,7,incongruent_right,1,1,0,1,0,A,j,0,0,0,0,0,59,59,6,,,j,1,0.455569028854,0.617574930191,0.583672046661,0.617574930191,0.38455414772,0.323755025864,1.00212907791,0.266098976135,0.186630964279,1.26822805405,0.267917871475,0.220969200134,1.53614592552,0.519206047058,0.473145008087,2.05535197258,0.300390958786,0.253957986832,2.35574293137,0.350687026978,0.306442975998,2.70642995834,0.50158405304,0.452078104019,3.20801401138,0.416151046753,0.36731505394,3.62416505814,j,1,1.90970087051,None,None,0.418933868408,0.369513034821,4.04309892654,0.38299202919,0.335058927536,4.42609095573,,,,,,,,,,,,,,,,,,,,,,,,,,,,,,,,,,,1,3,4,58.75650876590856,Dissertation,2018_Jul_18_2124,1,
Después de que limpiaron la casa brillaba por todas partes,Todavía tienen que limpiar la sala.,Verdadero,Falso,j,1,2,incongruent_left,1,1,0,1,0,A,f,0,0,0,0,0,60,60,1,,,f,1,0.506927013397,0.734282016754,0.69304394722,0.734282016754,0.251191139221,0.190299034119,0.985473155975,0.282903909683,0.220137834549,1.26837706566,0.167390108109,0.0996539592743,1.43576717377,0.535384893417,0.488517999649,1.97115206718,0.435065984726,0.373271942139,2.40621805191,0.365869998932,0.319714069366,2.77208805084,0.45299911499,0.372045040131,3.22508716583,0.350368022919,0.286090135574,3.57545518875,j,1,1.27238988876,None,None,0.334491968155,0.288921833038,3.90994715691,,,,,,,,,,,,,,,,,,,,,,,,,,,,,,,,,,,,,,1,3,4,58.75650876590856,Dissertation,2018_Jul_18_2124,1,
El mesero vació el vino que los clientes dejaron en la mesa en el fregadero después de que se fueron,Los clientes se fueron sin tomar todo el vino. ,Verdadero,Falso,f,0,17,congruent_left,1,1,1,0,0,A,f,0,0,0,0,0,61,61,16,,,f,1,0.471657037735,0.683895111084,0.628772974014,0.683895111084,0.351192951202,0.267847061157,1.03508806229,0.149497032166,0.070121049881,1.18458509445,0.30020904541,0.218176841736,1.48479413986,0.904232978821,0.840021848679,2.38902711868,0.283819913864,0.207516908646,2.67284703255,0.28262591362,0.202500104904,2.95547294617,0.302294969559,0.221505880356,3.25776791573,0.384779214859,0.305129051208,3.64254713058,f,1,2.25694704056,None,None,0.350279808044,0.254390954971,3.99282693863,0.418178081512,0.338590860367,4.41100502014,0.233391046524,0.154011964798,4.64439606667,0.316534996033,0.21911406517,4.9609310627,0.250540971756,0.185475111008,5.21147203445,0.401863098145,0.337134122849,5.6133351326,0.268266916275,0.189720153809,5.88160204887,0.332901000977,0.253465890884,6.21450304985,,,0.268301010132,0.205239057541,6.48280405998,0.249500989914,0.168818950653,6.7323050499,0.235017061234,0.169965982437,6.96732211113,,,,,,1,3,4,58.75650876590856,Dissertation,2018_Jul_18_2124,1,
Mis amigas se reunieron en la escuela para ir a jugar fútbol,Jugaron béisbol mis amigas.  ,Verdadero,Falso,j,0,209,incongruent_left,0,0,0,1,0,A,f,0,0,0,0,0,62,62,38,,,f,1,0.539921998978,0.66751408577,0.628067970276,0.66751408577,0.386108875275,0.339315891266,1.05362296104,0.317049026489,0.251418113708,1.37067198753,0.384723901749,0.323390960693,1.75539588928,0.284129142761,0.221062898636,2.03952503204,0.300414085388,0.238130807877,2.33993911743,0.218200922012,0.156657218933,2.55814003944,0.383569002151,0.337363004684,2.9417090416,0.23179101944,0.18526506424,3.17350006104,j,1,1.59327292442,None,None,0.268106937408,0.218394041061,3.44160699844,0.233829021454,0.185296058655,3.6754360199,0.234407901764,0.186789035797,3.90984392166,,,,,,,,,,,,,,,,,,,,,,,,,,,,,,,,1,3,4,58.75650876590856,Dissertation,2018_Jul_18_2124,1,
Antes de correr su primer maratón María tuvo que correr mucho para practicar,María corrió el maratón sin entrenarse.,Verdadero,Falso,f,0,210,single_left,0,0,0,0,1,A,f,0,0,0,0,0,63,63,39,,,f,1,0.48521399498,0.650521993637,0.59707903862,0.650521993637,0.283822059631,0.221704006195,0.934344053268,0.200757980347,0.134096860886,1.13510203362,0.182914972305,0.119251012802,1.31801700592,0.184720039368,0.120914936066,1.50273704529,0.267697095871,0.184941053391,1.77043414116,0.401619911194,0.335942029953,2.17205405235,0.316601037979,0.254021883011,2.48865509033,0.301601886749,0.240954875946,2.79025697708,j,0,2.00611305237,None,None,0.267357110977,0.205235958099,3.05761408806,0.282780885696,0.217180013657,3.34039497375,0.366767168045,0.31628704071,3.7071621418,0.252493858337,0.187168121338,3.95965600014,,,,,,,,,,,,,,,,,,,,,,,,,,,,,1,3,4,58.75650876590856,Dissertation,2018_Jul_18_2124,1,
Después de que comieron el pollo se enfrió inmediatamente ,Comieron el pollo caliente.,Verdadero,Falso,f,0,1,congruent_left,1,1,1,0,0,A,f,0,0,0,0,0,64,64,0,,,f,1,0.473190069199,0.650183916092,0.606203794479,0.650183916092,0.366805076599,0.303495168686,1.01698899269,0.151357889175,0.0872359275818,1.16834688187,0.267851114273,0.221800804138,1.43619799614,0.316910028458,0.271296024323,1.7531080246,0.367830038071,0.304222822189,2.12093806267,0.450653791428,0.403202056885,2.5715918541,0.335512161255,0.288146018982,2.90710401535,0.450459003448,0.388342142105,3.3575630188,j,0,1.3758149147,None,None,,,,,,,,,,,,,,,,,,,,,,,,,,,,,,,,,,,,,,,,,1,3,4,58.75650876590856,Dissertation,2018_Jul_18_2124,1,
a,a,Verdadero,Falso,f,0,308,congruent_right,0,0,1,0,0,A,j,0,0,0,0,0,65,65,67,,,j,1,0.537860870361,,,,,,,,,,,,,,,,,,,,,,,,,,,,None,0,,None,None,,,,,,,,,,,,,,,,,,,,,,,,,,,,,,,,,,,,,,,,,1,3,4,58.75650876590856,Dissertation,2018_Jul_18_2124,1,
El reloj de mi mamá tiene diamantes pero le queda muy bien,Mi madre tiene un reloj bonito.,Verdadero,Falso,f,0,223,congruent_right,0,0,1,0,0,A,j,0,0,0,0,0,66,66,52,,,j,1,0.403378009796,0.717687129974,0.681587219238,0.717687129974,0.300160884857,0.236970901489,1.01784801483,0.184569120407,0.137771129608,1.20241713524,0.250752925873,0.189383029938,1.45317006111,0.184427976608,0.123707056046,1.63759803772,0.451173067093,0.402719974518,2.08877110481,0.250443935394,0.205370903015,2.33921504021,0.367175102234,0.321100950241,2.70639014244,0.167543888092,0.122977972031,2.87393403053,f,1,2.07328987122,None,None,0.300429105759,0.254836082458,3.17436313629,0.267979860306,0.221605062485,3.4423429966,0.332118988037,0.269903182983,3.77446198463,,,,,,,,,,,,,,,,,,,,,,,,,,,,,,,,1,3,4,58.75650876590856,Dissertation,2018_Jul_18_2124,1,
Elena colocó la tarea que la Sra. Sánchez le dejó encima de su mesa en su cuaderno sin mirar la nota,A Elena no le importó su nota.,Verdadero,Falso,f,0,16,congruent_right,1,1,1,0,0,A,j,0,0,0,0,0,67,67,15,,,j,1,0.472909927368,0.666550159454,0.605564117432,0.666550159454,0.168200016022,0.0872378349304,0.834750175476,0.365545988083,0.286612033844,1.20029616356,0.218790054321,0.15080499649,1.41908621788,0.167725801468,0.0881550312042,1.58681201935,0.333425998688,0.254403829575,1.92023801804,0.26618719101,0.185491085052,2.18642520905,0.284917831421,0.221036195755,2.47134304047,0.335456132889,0.271579027176,2.80679917336,f,1,1.82744288445,None,None,0.233847856522,0.154769897461,3.04064702988,0.367511034012,0.288794994354,3.40815806389,0.299103021622,0.218333959579,3.70726108551,0.418041944504,0.350408792496,4.12530303001,0.285794973373,0.207602024078,4.41109800339,0.233357191086,0.154320001602,4.64445519447,0.384804964066,0.305327892303,5.02926015854,0.284241914749,0.205509901047,5.31350207329,,,0.6003241539,0.522112131119,5.91382622719,0.368340969086,0.288159132004,6.28216719627,0.467716932297,0.387881994247,6.74988412857,0.367651939392,0.287013053894,7.11753606796,,,1,3,4,58.75650876590856,Dissertation,2018_Jul_18_2124,1,
La participante brilló cuando ganó el maratón,La participante se quedó triste después del maratón.,Verdadero,Falso,j,0,218,single_left,0,0,0,0,1,A,f,0,0,0,0,0,68,68,47,,,f,1,0.422891139984,0.649753093719,0.61917090416,0.649753093719,0.267570972443,0.219660997391,0.917324066162,0.201736927032,0.155058860779,1.11906099319,0.434005022049,0.371786832809,1.55306601524,0.233533143997,0.188668966293,1.78659915924,0.366845846176,0.320520877838,2.15344500542,0.352513074875,0.305400848389,2.50595808029,,,,,,,j,1,1.75601100922,None,None,,,,,,,,,,,,,,,,,,,,,,,,,,,,,,,,,,,,,,,,,1,3,4,58.75650876590856,Dissertation,2018_Jul_18_2124,1,
El señor gordo tomó un café solo,El señor estaba solo cuando bebió el café.,Verdadero,Falso,j,0,228,single_right,0,0,0,0,1,A,j,0,0,0,0,0,69,69,57,,,j,1,0.521898984909,0.549633026123,0.528789043427,0.549633026123,0.1519510746,0.0899600982666,0.701584100723,0.233077049255,0.187096118927,0.934661149979,0.234287977219,0.187808036804,1.1689491272,0.384804964066,0.338553905487,1.55375409126,0.266483068466,0.221849918365,1.82023715973,0.368175983429,0.321417093277,2.18841314316,,,,,,,j,1,4.08301091194,None,None,,,,,,,,,,,,,,,,,,,,,,,,,,,,,,,,,,,,,,,,,1,3,4,58.75650876590856,Dissertation,2018_Jul_18_2124,1,
Me reí cuando mi amiga me contó la historia de su encuentro con su ex.,La historia de mi amiga me dio gracia.,Verdadero,Falso,f,0,220,single_right,0,0,0,0,1,A,j,0,0,0,0,0,70,70,49,,,j,1,0.535524129868,0.667453050613,0.61173582077,0.667453050613,0.166923999786,0.103904008865,0.8343770504,0.250602960587,0.187731981277,1.08498001099,0.167367935181,0.105215072632,1.25234794617,0.266935110092,0.20766711235,1.51928305626,0.217567920685,0.154125928879,1.73685097694,0.233849048615,0.172731876373,1.97070002556,0.150227069855,0.088711977005,2.12092709541,0.267731904984,0.205500841141,2.3886590004,f,1,2.04347205162,None,None,0.199450969696,0.136265993118,2.58810997009,0.251487016678,0.183574914932,2.83959698677,0.167453050613,0.104948043823,3.00705003738,0.18230009079,0.120651960373,3.18935012817,0.502909898758,0.438654899597,3.69226002693,0.250133037567,0.187813997269,3.9423930645,,,,,,,,,,,,,,,,,,,,,,,1,3,4,58.75650876590856,Dissertation,2018_Jul_18_2124,1,
Jorge puso las monedas que traía en su abrigo en la mesa cuando regresó a su casa,Las monedas de Jorge están en su abrigo.,Verdadero,Falso,j,0,12,congruent_right,1,1,1,0,0,A,j,0,0,0,0,0,71,71,11,,,j,1,0.438523054123,0.616715192795,0.570065975189,0.616715192795,0.184478998184,0.104512929916,0.801194190979,0.265739917755,0.202111005783,1.06693410873,0.168665885925,0.105294942856,1.23559999466,0.182022094727,0.116171121597,1.41762208939,0.202017068863,0.137437105179,1.61963915825,0.267744064331,0.185178041458,1.88738322258,0.31614279747,0.234144926071,2.20352602005,0.185381174088,0.122548103333,2.38890719414,j,1,1.67544698715,None,None,0.182791948318,0.104542970657,2.57169914246,0.20161485672,0.138042926788,2.77331399918,0.284025192261,0.222587823868,3.05733919144,0.183398962021,0.0886340141296,3.24073815346,0.199359893799,0.136964082718,3.44009804726,0.386348962784,0.32271194458,3.82644701004,0.23223400116,0.170536994934,4.0586810112,0.285356044769,0.22114610672,4.34403705597,,,,,,,,,,,,,,,,,1,3,4,58.75650876590856,Dissertation,2018_Jul_18_2124,1,
Los artistas van a donar tres estatuas a la ciudad,La ciudad va a comprar las estatuas.,Verdadero,Falso,j,0,203,incongruent_right,0,0,0,1,0,A,j,0,0,0,0,0,72,72,32,,,j,1,0.501389026642,0.565496921539,0.532136917114,0.565496921539,0.417890071869,0.371753931046,0.983386993408,0.183042049408,0.119548082352,1.16642904282,0.283849954605,0.23673915863,1.45027899742,0.184821844101,0.121224880219,1.63510084152,0.199429988861,0.152841806412,1.83453083038,0.33638715744,0.272472143173,2.17091798782,0.267388820648,0.218010187149,2.43830680847,0.200434207916,0.154315948486,2.63874101639,j,1,1.50914883614,None,None,0.333070993423,0.285186052322,2.97181200981,,,,,,,,,,,,,,,,,,,,,,,,,,,,,,,,,,,,,,1,3,4,58.75650876590856,Dissertation,2018_Jul_18_2124,1,
La señora insertó la tarjeta que su pareja le dejó en su cartera en la máquina para pagar,La mujer puso la tarjeta en su cartera.,Verdadero,Falso,j,1,19,incongruent_right,1,1,0,1,0,A,j,0,0,0,0,0,73,73,18,,,j,1,0.573179960251,0.633300065994,0.583766937256,0.633300065994,0.200803041458,0.134281873703,0.834103107452,0.267394065857,0.187664031982,1.10149717331,0.184478998184,0.121942043304,1.28597617149,0.284479856491,0.222799062729,1.57045602798,0.199408054352,0.103051185608,1.76986408234,0.301281929016,0.189393997192,2.07114601135,0.333039999008,0.252526044846,2.40418601036,0.185075044632,0.123295068741,2.58926105499,j,1,2.38988208771,None,None,0.183838129044,0.0844159126282,2.77309918404,0.301360845566,0.236110925674,3.0744600296,0.315474033356,0.235862016678,3.38993406296,0.218581914902,0.1572701931,3.60851597786,0.435185194016,0.355996131897,4.04370117188,0.298967838287,0.221451997757,4.34266901016,0.267773151398,0.153491020203,4.61044216156,0.218681812286,0.106554031372,4.82912397385,,,0.333399057388,0.253942012787,5.16252303123,,,,,,,,,,,,1,3,4,58.75650876590856,Dissertation,2018_Jul_18_2124,1,
Cuando la chica lava los platos se quedan bien sucios,La chica lava sin cuidado.,Verdadero,Falso,f,0,9,congruent_left,1,1,1,0,0,A,f,0,0,0,0,0,74,74,8,,,f,1,0.486811876297,0.566997051239,0.526653766632,0.566997051239,0.150942802429,0.104864120483,0.717939853668,0.315461158752,0.271373987198,1.03340101242,0.185883045197,0.140058040619,1.21928405762,0.182768821716,0.12157702446,1.40205287933,0.23483300209,0.18856883049,1.63688588142,0.300667047501,0.254479169846,1.93755292892,0.21760892868,0.16799902916,2.1551618576,0.266893148422,0.218449115753,2.42205500603,f,1,1.291918993,None,None,0.234524011612,0.188179969788,2.65657901764,,,,,,,,,,,,,,,,,,,,,,,,,,,,,,,,,,,,,,1,3,4,58.75650876590856,Dissertation,2018_Jul_18_2124,1,
Las artistas colocaron el cuadro que su colega dejó en la pared en la oficina privada antes de su exhibición,La galería de arte estaba vacía cuando las artistas llegaron.,Verdadero,Falso,j,0,38,congruent_right,1,1,1,0,0,B,j,1,0,1,0,0,0,0,17,,,j,1,0.556056022644,0.768032073975,0.695730924606,0.768032073975,0.385143995285,0.288264036179,1.15317606926,0.16449379921,0.0839891433716,1.31766986847,0.320124149323,0.256093978882,1.63779401779,0.217021942139,0.137541055679,1.85481595993,0.249871969223,0.170798063278,2.10468792915,0.200057983398,0.119220972061,2.30474591255,0.23381114006,0.152215957642,2.53855705261,0.202440977097,0.118304014206,2.74099802971,f,0,4.16144394875,None,None,0.183461904526,0.106119155884,2.92445993423,0.283549070358,0.156142950058,3.20800900459,0.417927980423,0.340109109879,3.62593698502,0.25123000145,0.171131849289,3.87716698647,0.300748109818,0.221318006516,4.17791509628,0.333764791489,0.254709005356,4.51167988777,0.333476066589,0.25243806839,4.84515595436,0.251451015472,0.187582015991,5.09660696983,,,0.36777806282,0.286591053009,5.46438503265,0.300596952438,0.22306895256,5.76498198509,0.366475105286,0.268319129944,6.13145709038,,,,space,0.920978069305,1,3,4,58.75650876590856,Dissertation,2018_Jul_18_2124,1,
En el salón de conciertos resonaba la música de la banda ,Se podía escuchar la música en todo el salón.,Verdadero,Falso,f,0,249,congruent_right,0,0,1,0,0,B,j,1,0,1,0,0,1,1,48,,,j,1,0.473150014877,0.634403944016,0.599437952042,0.634403944016,0.334110021591,0.27202296257,0.968513965607,0.199841976166,0.153766155243,1.16835594177,0.200343132019,0.138522863388,1.36869907379,0.199646949768,0.136758089066,1.56834602356,0.202338933945,0.155005931854,1.7706849575,0.533586025238,0.472099065781,2.30427098274,0.45197892189,0.384793043137,2.75624990463,0.28418302536,0.236381053925,3.04043292999,f,1,2.1212849617,None,None,0.365946054459,0.319167852402,3.40637898445,0.319417953491,0.271775007248,3.72579693794,,,,,,,,,,,,,,,,,,,,,,,,,,,,,,,,,,,1,3,4,58.75650876590856,Dissertation,2018_Jul_18_2124,1,
Justo cuando aparcaron el carro viejo volvió a fallar,El carro está en una condición perfecta.,Verdadero,Falso,j,0,23,congruent_left,1,1,1,0,0,B,f,1,0,1,0,0,2,2,2,,,f,1,0.454838991165,0.566842079163,0.534095048904,0.566842079163,0.183002948761,0.135764122009,0.749845027924,0.335635185242,0.272802114487,1.08548021317,0.234171867371,0.188980817795,1.31965208054,0.434433937073,0.389098167419,1.75408601761,0.350995063782,0.288731098175,2.10508108139,0.349208116531,0.303336143494,2.45428919792,0.368240833282,0.321539878845,2.8225300312,0.502591133118,0.41974902153,3.32512116432,j,1,1.39314389229,None,None,,,,,,,,,,,,,,,,,,,,,,,,,,,,,,,,,,,,,,,,,1,3,4,58.75650876590856,Dissertation,2018_Jul_18_2124,1,
Mientras el maestro tocaba el violín resonaba por todo el salón,El maestro tocaba el piano.,Verdadero,Falso,j,1,25,incongruent_right,1,1,0,1,0,B,j,1,0,1,0,0,3,3,4,,,j,1,0.520474910736,0.468008041382,0.435215950012,0.468008041382,0.201642036438,0.137923002243,0.66965007782,0.315228939056,0.253281831741,0.984879016876,0.202189922333,0.151062965393,1.18706893921,0.351160049438,0.289754867554,1.53822898865,0.384459018707,0.321547985077,1.92268800735,0.333077907562,0.271123886108,2.25576591492,0.301677942276,0.254688024521,2.55744385719,0.351792097092,0.289909124374,2.90923595428,j,1,1.59154200554,None,None,0.383567094803,0.322747945786,3.29280304909,0.301530838013,0.239665985107,3.5943338871,,,,,,,,,,,,,,,,,,,,,,,,,,,,,,,,,,,1,3,4,58.75650876590856,Dissertation,2018_Jul_18_2124,1,
Subí la escalera para irme a dormir,Mi cuarto de dormir está en la planta baja.,Verdadero,Falso,j,0,250,single_right,0,0,0,0,1,B,j,1,0,1,0,0,4,4,49,,,j,1,0.804747819901,0.534248113632,0.513267040253,0.534248113632,0.351598024368,0.305480957031,0.885846138,0.349566936493,0.304861783981,1.23541307449,0.335587978363,0.288315057755,1.57100105286,0.366522073746,0.317394971848,1.9375231266,0.251038789749,0.206274032593,2.18856191635,0.334691047668,0.290428876877,2.52325296402,,,,,,,j,1,2.05726003647,None,None,,,,,,,,,,,,,,,,,,,,,,,,,,,,,,,,,,,,,,,,,1,3,4,58.75650876590856,Dissertation,2018_Jul_18_2124,1,
Cuando la artista pintó el cuadro cayó de la pared,El cuadro está colgado firmemente.,Verdadero,Falso,j,0,27,congruent_left,1,1,1,0,0,B,f,1,0,1,0,0,5,5,6,,,f,1,0.48858499527,0.599318981171,0.564427137375,0.599318981171,0.30150604248,0.253827810287,0.900825023651,0.182965040207,0.135096788406,1.08379006386,0.18465590477,0.136965036392,1.26844596863,0.351335048676,0.306473970413,1.6197810173,0.215469837189,0.168115854263,1.83525085449,0.369937181473,0.319116830826,2.20518803596,0.267331838608,0.223577022552,2.47251987457,0.334506988525,0.288376092911,2.8070268631,j,1,2.59597015381,None,None,0.264802217484,0.201419115067,3.07182908058,,,,,,,,,,,,,,,,,,,,,,,,,,,,,,,,,,,,,,1,3,4,58.75650876590856,Dissertation,2018_Jul_18_2124,1,
No aceptaron a las mujeres en el club por sus prejuicios,Las mujeres tenían muchos prejuicios.,Verdadero,Falso,j,0,259,congruent_left,0,0,1,0,0,B,f,1,0,1,0,0,6,6,58,,,f,1,0.505101919174,0.516882181168,0.476990938187,0.516882181168,0.201238870621,0.154129981995,0.718121051788,0.183844089508,0.120523929596,0.901965141296,0.333518981934,0.28733921051,1.23548412323,0.217444896698,0.170436859131,1.45292901993,0.218259096146,0.156432151794,1.67118811607,0.300293922424,0.254799127579,1.9714820385,0.19970202446,0.136923789978,2.17118406296,0.386023044586,0.338768005371,2.55720710754,j,1,1.18834209442,None,None,0.232506990433,0.185938119888,2.78971409798,0.36873793602,0.317808151245,3.158452034,,,,,,,,,,,,,,,,,,,,,,,,,,,,,,,,,,,1,3,4,58.75650876590856,Dissertation,2018_Jul_18_2124,1,
a,a,Verdadero,Falso,f,0,305,single_left,0,0,0,0,1,A,f,1,0,1,0,0,7,7,64,,,f,1,0.687378883362,,,,,,,,,,,,,,,,,,,,,,,,,,,,None,0,,None,None,,,,,,,,,,,,,,,,,,,,,,,,,,,,,,,,,,,,,,,,,1,3,4,58.75650876590856,Dissertation,2018_Jul_18_2124,1,
a,a,Verdadero,Falso,f,0,304,congruent_right,0,0,1,0,0,A,j,1,0,1,0,0,8,8,63,,,j,1,0.355973958969,,,,,,,,,,,,,,,,,,,,,,,,,,,,None,0,,None,None,,,,,,,,,,,,,,,,,,,,,,,,,,,,,,,,,,,,,,,,,1,3,4,58.75650876590856,Dissertation,2018_Jul_18_2124,1,
El padre metió las copas sucias que su hija dejó en la mesa en el lavaplatos cuando acabó de comer,El padre limpió la mesa después de la comida.,Verdadero,Falso,f,1,37,incongruent_right,1,1,0,1,0,B,j,1,0,1,0,0,9,9,16,,,j,1,0.469469070435,0.500574111938,0.447340965271,0.500574111938,0.336204051971,0.271228075027,0.83677816391,0.217031955719,0.137563943863,1.05381011963,0.182682991028,0.10126709938,1.23649311066,0.319118976593,0.238770008087,1.55561208725,0.266628026962,0.187922954559,1.82224011421,0.384531021118,0.305648088455,2.20677113533,0.267247915268,0.183884143829,2.4740190506,0.201218128204,0.121698856354,2.6752371788,j,0,3.29741311073,None,None,0.183527946472,0.105010986328,2.85876512527,0.23332285881,0.15331697464,3.09208798409,0.284898996353,0.205202102661,3.37698698044,0.233755111694,0.154900074005,3.61074209213,0.217000961304,0.137590169907,3.82774305344,0.251092910767,0.172174930573,4.0788359642,0.216872215271,0.137491941452,4.29570817947,0.367720842361,0.288746833801,4.66342902184,,,0.249186992645,0.170408964157,4.91261601448,0.350937128067,0.270231962204,5.26355314255,0.302814006805,0.238300085068,5.56636714935,,,,,,1,3,4,58.75650876590856,Dissertation,2018_Jul_18_2124,1,
Mientras el padre rezaba la biblia antigua se le cayó al piso,El padre no es muy religioso.,Verdadero,Falso,j,0,107,incongruent_right,0,1,0,1,0,B,j,1,0,1,0,0,10,10,23,,,j,1,0.473531007767,0.501554012299,0.460013151169,0.501554012299,0.233699798584,0.171508073807,0.735253810883,0.250864028931,0.188360929489,0.986117839813,0.216976165771,0.150531053543,1.20309400558,0.36788892746,0.322015047073,1.57098293304,0.216644048691,0.155637979507,1.78762698174,0.251381874084,0.18897986412,2.03900885582,0.267670154572,0.206551790237,2.30667901039,0.384459972382,0.324534893036,2.69113898277,j,1,1.89314198494,None,None,0.198104858398,0.135964155197,2.88924384117,0.267999172211,0.219429969788,3.15724301338,0.302612781525,0.255150079727,3.45985579491,,,,,,,,,,,,,,,,,,,,,,,,,,,,,,,,1,3,4,58.75650876590856,Dissertation,2018_Jul_18_2124,1,
Cuando la participante adivinó la respuesta apareció en la pantalla,La participante está en un concurso.,Verdadero,Falso,f,1,28,incongruent_left,1,1,0,1,0,B,f,1,0,1,0,0,11,11,7,,,f,1,0.587832927704,0.499658107758,0.453588008881,0.499658107758,0.201874017715,0.155644178391,0.701532125473,0.198623895645,0.134747028351,0.900156021118,0.20220708847,0.154701948166,1.10236310959,0.433119058609,0.370796918869,1.5354821682,0.268669843674,0.221834897995,1.80415201187,0.45098400116,0.385057926178,2.25513601303,0.284660100937,0.221911907196,2.53979611397,0.284329891205,0.221503973007,2.82412600517,f,1,2.50806713104,None,None,0.266393184662,0.206070899963,3.09051918983,,,,,,,,,,,,,,,,,,,,,,,,,,,,,,,,,,,,,,1,3,4,58.75650876590856,Dissertation,2018_Jul_18_2124,1,
a,a,Verdadero,Falso,f,0,312,congruent_right,0,0,1,0,0,A,j,1,0,1,0,0,12,12,71,,,j,1,0.571309089661,,,,,,,,,,,,,,,,,,,,,,,,,,,,None,0,,None,None,,,,,,,,,,,,,,,,,,,,,,,,,,,,,,,,,,,,,,,,,1,3,4,58.75650876590856,Dissertation,2018_Jul_18_2124,1,
La arquitecta guardó los planos en su bolsa,Los planos están en el archivero.,Verdadero,Falso,j,0,231,congruent_left,0,0,1,0,0,B,f,1,0,1,0,0,13,13,30,,,f,1,0.372597932816,0.483849048615,0.451659917831,0.483849048615,0.266813993454,0.22067117691,0.750663042068,0.182066917419,0.135544061661,0.932729959488,0.218321084976,0.169897079468,1.15105104446,0.402067899704,0.355177164078,1.55311894417,0.216850996017,0.17057299614,1.76996994019,0.383738040924,0.336529016495,2.15370798111,0.36817407608,0.32097196579,2.52188205719,,,,j,1,1.65854001045,None,None,,,,,,,,,,,,,,,,,,,,,,,,,,,,,,,,,,,,,,,,,1,3,4,58.75650876590856,Dissertation,2018_Jul_18_2124,1,
Sandra acomodó las novelas que Antonia dejó en el librero cuando las encontró,Sandra limpió el lío de libros de Antonia.,Verdadero,Falso,f,0,115,incongruent_right,0,1,0,1,0,B,j,1,0,1,0,0,14,14,27,,,j,1,0.540348052979,0.416431903839,0.369682073593,0.416431903839,0.184229135513,0.121335983276,0.600661039352,0.233929872513,0.171452045441,0.834590911865,0.233150005341,0.170441865921,1.06774091721,0.283898115158,0.219805955887,1.35163903236,0.252057790756,0.18593788147,1.60369682312,0.332785129547,0.269752025604,1.93648195267,0.2013630867,0.136492013931,2.13784503937,0.284037828445,0.22335600853,2.42188286781,f,1,2.84310603142,None,None,0.266317129135,0.182245969772,2.68819999695,0.435338020325,0.370364189148,3.12353801727,0.300030946732,0.23432302475,3.423568964,0.335321903229,0.2720079422,3.75889086723,,,,,,,,,,,,,,,,,,,,,,,,,,,,,1,3,4,58.75650876590856,Dissertation,2018_Jul_18_2124,1,
La arquitecta puso los planos que sus compañeros le dejaron en su oficina encima de la mesa para verlos bien,La arquitecta sacó los planos de su bolsa.,Verdadero,Falso,j,0,35,congruent_left,1,1,1,0,0,B,f,1,0,1,0,0,15,15,14,,,f,1,0.622980833054,0.56759595871,0.505661010742,0.56759595871,0.200667858124,0.123175859451,0.768263816833,0.216485023499,0.136873006821,0.984748840332,0.198734998703,0.117116928101,1.18348383904,0.235231161118,0.169752120972,1.41871500015,0.234344005585,0.136673927307,1.65305900574,0.200894832611,0.120376110077,1.85395383835,0.201006174088,0.12264084816,2.05496001244,0.216735839844,0.138144016266,2.27169585228,j,1,1.65544509888,None,None,0.250557184219,0.172522068024,2.5222530365,0.251074790955,0.168267011642,2.77332782745,0.23353600502,0.150245904922,3.00686383247,0.19980597496,0.136893033981,3.20666980743,0.232901096344,0.151655912399,3.43957090378,0.285212039948,0.220003128052,3.72478294373,0.335130929947,0.254785060883,4.05991387367,0.217704057693,0.13903594017,4.27761793137,,,0.250097036362,0.170793056488,4.52771496773,0.217963933945,0.138316869736,4.74567890167,0.267174005508,0.188505887985,5.01285290718,,,,,,1,3,4,58.75650876590856,Dissertation,2018_Jul_18_2124,1,
a,a,Verdadero,Falso,f,0,309,single_left,0,0,0,0,1,A,f,1,0,1,0,0,16,16,68,,,f,1,0.740667104721,,,,,,,,,,,,,,,,,,,,,,,,,,,,None,0,,None,None,,,,,,,,,,,,,,,,,,,,,,,,,,,,,,,,,,,,,,,,,1,3,4,58.75650876590856,Dissertation,2018_Jul_18_2124,1,
La cantante colocó el micrófono que usó en el escenario en su lugar después del concierto,La cantante no usó un micrófono durante el show.,Verdadero,Falso,j,0,31,congruent_left,1,1,1,0,0,B,f,1,0,1,0,0,17,17,10,,,f,1,0.502465009689,0.598707914352,0.547325849533,0.598707914352,0.267795085907,0.203928947449,0.866503000259,0.185817956924,0.122238874435,1.05232095718,0.233227014542,0.154190063477,1.28554797173,0.200641870499,0.138404846191,1.48618984222,0.200525045395,0.139091014862,1.68671488762,0.250086069107,0.186521053314,1.93680095673,0.301748991013,0.234397888184,2.23854994774,0.26731300354,0.205358028412,2.50586295128,j,1,1.6419107914,None,None,0.2661049366,0.203629016876,2.77196788788,0.418524980545,0.356156110764,3.19049286842,0.268131017685,0.201431035995,3.45862388611,0.233963012695,0.168793916702,3.6925868988,0.283473968506,0.221932172775,3.97606086731,0.502041101456,0.43540596962,4.47810196877,0.250118970871,0.188077926636,4.72822093964,,,,,,,,,,,,,,,,,,,,1,3,4,58.75650876590856,Dissertation,2018_Jul_18_2124,1,
El chico guapo está bien solo ,El chico está contento sin novia.,Verdadero,Falso,j,0,258,single_right,0,0,0,0,1,B,j,1,0,1,0,0,18,18,57,,,j,1,0.405449151993,0.465736865997,0.444534063339,0.465736865997,0.234344959259,0.199922084808,0.700081825256,0.234395980835,0.20331287384,0.934477806091,0.367885112762,0.32049202919,1.30236291885,0.251121997833,0.204344034195,1.55348491669,0.367567062378,0.321956157684,1.92105197906,,,,,,,,,,f,0,3.11080908775,None,None,,,,,,,,,,,,,,,,,,,,,,,,,,,,,,,,,,,,,,,,,1,3,4,58.75650876590856,Dissertation,2018_Jul_18_2124,1,
Mi papá guardó la pintura que hizo en su despacho de trabajo,Mi papá se quedó orgulloso de su pintura.,Verdadero,Falso,f,0,114,incongruent_left,0,1,0,1,0,B,f,1,0,1,0,0,19,19,26,,,f,1,0.519691944122,0.434587001801,0.401952981949,0.434587001801,0.251703977585,0.184481143951,0.686290979385,0.18334197998,0.117606163025,0.869632959366,0.267826080322,0.221991062164,1.13745903969,0.349635124207,0.303105115891,1.48709416389,0.233659982681,0.185992002487,1.72075414658,0.369491815567,0.306860923767,2.09024596214,0.216722011566,0.171817064285,2.30696797371,0.334172964096,0.270401000977,2.64114093781,f,1,3.39555191994,None,None,0.384890079498,0.33966088295,3.0260310173,0.483295917511,0.419694900513,3.50932693481,0.30167222023,0.254626989365,3.81099915504,,,,,,,,,,,,,,,,,,,,,,,,,,,,,,,,1,3,4,58.75650876590856,Dissertation,2018_Jul_18_2124,1,
a,a,Verdadero,Falso,f,0,314,single_left,0,0,0,0,1,A,f,1,0,1,0,0,20,20,73,,,f,1,0.407387971878,,,,,,,,,,,,,,,,,,,,,,,,,,,,None,0,,None,None,,,,,,,,,,,,,,,,,,,,,,,,,,,,,,,,,,,,,,,,,1,3,4,58.75650876590856,Dissertation,2018_Jul_18_2124,1,
Los meseros preparan las verduras en la cocina antes de servirlas,Los meseros lavan las verduras.,Verdadero,Falso,f,0,234,single_right,0,0,0,0,1,B,j,1,0,1,0,0,21,21,33,,,j,1,0.37162899971,0.500278949738,0.459592103958,0.500278949738,0.2005610466,0.139205932617,0.700839996338,0.217477083206,0.155730009079,0.918317079544,0.817683935165,0.751173973083,1.73600101471,0.185302972794,0.11895608902,1.9213039875,0.266977071762,0.204269886017,2.18828105927,0.334234952927,0.267772912979,2.52251601219,0.283859014511,0.222486019135,2.8063750267,0.38419008255,0.321444034576,3.19056510925,f,1,1.75918197632,None,None,0.267303943634,0.200914859772,3.45786905289,0.334287881851,0.28852891922,3.79215693474,,,,,,,,,,,,,,,,,,,,,,,,,,,,,,,,,,,1,3,4,58.75650876590856,Dissertation,2018_Jul_18_2124,1,
Toni dejó los zapatos que compró en su cuarto cuando volvió,Toni solo compró pantalones.,Verdadero,Falso,j,0,111,incongruent_right,0,1,0,1,0,B,j,1,0,1,0,0,22,22,25,,,j,1,0.524884939194,0.583023071289,0.545143127441,0.583023071289,0.25008893013,0.185916900635,0.833112001419,0.202120065689,0.154797077179,1.03523206711,0.316144943237,0.253148078918,1.35137701035,0.268965959549,0.222139120102,1.62034296989,0.45032119751,0.403185129166,2.0706641674,0.419271945953,0.351451158524,2.48993611336,0.233052968979,0.187835931778,2.72298908234,0.282825946808,0.234657049179,3.00581502914,j,1,1.38751602173,None,None,0.201771020889,0.154982089996,3.20758605003,0.399868011475,0.349411010742,3.60745406151,,,,,,,,,,,,,,,,,,,,,,,,,,,,,,,,,,,1,3,4,58.75650876590856,Dissertation,2018_Jul_18_2124,1,
Mi tarjeta de crédito se me quedó en casa,Tuve que usar efectivo para pagar.,Verdadero,Falso,f,0,254,single_right,0,0,0,0,1,B,j,1,0,1,0,0,23,23,53,,,j,1,0.669852018356,0.583420991898,0.555409908295,0.583420991898,0.233132839203,0.184689044952,0.8165538311,0.202259063721,0.15488409996,1.01881289482,0.266035079956,0.219673871994,1.28484797478,0.218248844147,0.170464992523,1.50309681892,0.300720214844,0.255460977554,1.80381703377,0.267817020416,0.222845077515,2.07163405418,0.317148923874,0.271713018417,2.38878297806,0.315737962723,0.269479036331,2.70452094078,j,0,4.44894814491,None,None,,,,,,,,,,,,,,,,,,,,,,,,,,,,,,,,,,,,,,,,,1,3,4,58.75650876590856,Dissertation,2018_Jul_18_2124,1,
Cuando mi hermana maneja el carro mi papá camina a la oficina,Mi hermana tiene su propio carro.,Verdadero,Falso,j,0,237,congruent_right,0,0,1,0,0,B,j,1,0,1,0,0,24,24,36,,,j,1,0.641264915466,0.53319978714,0.497534036636,0.53319978714,0.234750986099,0.188365936279,0.767950773239,0.267136096954,0.221493005753,1.03508687019,0.250719070435,0.188606977463,1.28580594063,0.434573888779,0.373278856277,1.72037982941,0.301249980927,0.251875162125,2.02162981033,0.298127174377,0.25092291832,2.31975698471,0.301867008209,0.236543178558,2.62162399292,0.218299865723,0.155481100082,2.83992385864,j,1,1.32438802719,None,None,0.217648029327,0.154010057449,3.05757188797,0.251293897629,0.190944194794,3.3088657856,0.315469026566,0.254701137543,3.62433481216,,,,,,,,,,,,,,,,,,,,,,,,,,,,,,,,1,3,4,58.75650876590856,Dissertation,2018_Jul_18_2124,1,
La cajera insertó el billete que el cliente le dejó en la caja pero no tenía cambio,La caja tenía muchos billetes pequeños.,Verdadero,Falso,j,0,119,incongruent_right,0,1,0,1,0,B,j,1,0,1,0,0,25,25,29,,,j,1,0.518893957138,0.550779104233,0.504507064819,0.550779104233,0.200288057327,0.137993097305,0.75106716156,0.216840028763,0.153367042542,0.967907190323,0.233628988266,0.16970705986,1.20153617859,0.385545969009,0.32164812088,1.5870821476,0.183069944382,0.121133089066,1.77015209198,0.35107588768,0.288192033768,2.12122797966,0.383631229401,0.321183919907,2.50485920906,0.268271923065,0.204384088516,2.77313113213,j,1,4.1636838913,None,None,0.719413995743,0.657201051712,3.49254512787,0.383250951767,0.322560071945,3.87579607964,0.384732961655,0.323799133301,4.26052904129,0.251269102097,0.188657045364,4.51179814339,0.431725978851,0.349528074265,4.94352412224,0.419995069504,0.354873895645,5.36351919174,0.384194850922,0.302098989487,5.74771404266,0.417294025421,0.353766202927,6.16500806808,,,,,,,,,,,,,,,,,1,3,4,58.75650876590856,Dissertation,2018_Jul_18_2124,1,
Los novios tomaron vino durante la fiesta,Los novios sólo toman cerveza.,Verdadero,Falso,j,0,247,congruent_left,0,0,1,0,0,B,f,1,0,1,0,0,26,26,46,,,f,1,0.472813129425,0.634804964066,0.607692956924,0.634804964066,0.200734853745,0.156677961349,0.83553981781,0.382953166962,0.335873126984,1.21849298477,0.41853094101,0.372041940689,1.63702392578,0.400976896286,0.355970144272,2.03800082207,0.433315992355,0.385370016098,2.47131681442,0.436347961426,0.389352083206,2.90766477585,,,,,,,j,1,1.37471222878,None,None,,,,,,,,,,,,,,,,,,,,,,,,,,,,,,,,,,,,,,,,,1,3,4,58.75650876590856,Dissertation,2018_Jul_18_2124,1,
La empleada guardó los documentos que recibió en el buzón en una carpeta después de revisarlos,La empleada revisó los documentos.,Verdadero,Falso,f,1,32,incongruent_left,1,1,0,1,0,B,f,1,0,1,0,0,27,27,11,,,f,1,0.456018924713,0.533600091934,0.48313999176,0.533600091934,0.267920970917,0.186954975128,0.801521062851,0.717941045761,0.637381076813,1.51946210861,0.217923879623,0.155281066895,1.73738598824,0.283421993256,0.220991849899,2.02080798149,0.21740603447,0.154247999191,2.23821401596,0.26673913002,0.204617977142,2.50495314598,0.318691015244,0.254979133606,2.82364416122,0.400547981262,0.321843147278,3.22419214249,f,1,1.26997613907,None,None,0.249876976013,0.183960199356,3.4740691185,0.400284051895,0.334758996964,3.87435317039,1.07133793831,1.00375294685,4.9456911087,0.233876943588,0.171839952469,5.17956805229,0.449696063995,0.386202812195,5.62926411629,0.335194826126,0.267484903336,5.96445894241,0.301596164703,0.238133907318,6.26605510712,,,,,,,,,,,,,,,,,,,,1,3,4,58.75650876590856,Dissertation,2018_Jul_18_2124,1,
Los pasteles en la cocina de los Menéndez son para la fiesta de cumpleaños,Los Menéndez van a una fiesta.,Verdadero,Falso,f,0,232,single_left,0,0,0,0,1,B,f,1,0,1,0,0,28,28,31,,,f,1,0.424392938614,0.801913976669,0.760710000992,0.801913976669,0.232316017151,0.169713020325,1.03422999382,0.201809883118,0.138301134109,1.23603987694,0.251418113708,0.18811917305,1.48745799065,0.21662402153,0.154559135437,1.70408201218,0.318017959595,0.251559972763,2.02209997177,0.23243188858,0.168781042099,2.25453186035,0.252377033234,0.173788070679,2.50690889359,0.450170993805,0.387712955475,2.95707988739,f,1,1.92235517502,None,None,0.435259103775,0.369906902313,3.39233899117,0.41800403595,0.356183052063,3.81034302711,0.417165994644,0.338582038879,4.22750902176,0.417866945267,0.35439991951,4.64537596703,0.267951011658,0.204442977905,4.91332697868,,,,,,,,,,,,,,,,,,,,,,,,,,1,3,4,58.75650876590856,Dissertation,2018_Jul_18_2124,1,
Siempre que mi hermana sale el carro se queda sin gasolina,Mi hermana no rellena el tanque.,Verdadero,Falso,f,0,103,incongruent_right,0,1,0,1,0,B,j,1,0,1,0,0,29,29,21,,,j,1,0.537844181061,0.517173051834,0.47852897644,0.517173051834,0.200382947922,0.151838064194,0.717555999756,0.266215085983,0.218601942062,0.983771085739,0.218350887299,0.171229124069,1.20212197304,0.233896970749,0.187912940979,1.43601894379,0.301304101944,0.237767934799,1.73732304573,0.216672897339,0.171625137329,1.95399594307,0.267376184464,0.205757856369,2.22137212753,0.250859022141,0.205165863037,2.47223114967,f,1,1.33886408806,None,None,0.283895015717,0.220923900604,2.75612616539,0.300177812576,0.251516103745,3.05630397797,,,,,,,,,,,,,,,,,,,,,,,,,,,,,,,,,,,1,3,4,58.75650876590856,Dissertation,2018_Jul_18_2124,1,
Las chicas acomodaron la ropa que sus padres les dejaron en su cuarto dentro del clóset antes de dormir,Los padres doblaron la ropa para sus hijas.,Verdadero,Falso,f,1,36,incongruent_left,1,1,0,1,0,B,f,1,0,1,0,0,30,30,15,,,f,1,0.556011915207,0.516644001007,0.435123920441,0.516644001007,0.333055973053,0.236754179001,0.84969997406,0.218729019165,0.135138988495,1.06842899323,0.250716924667,0.171380996704,1.31914591789,0.468481063843,0.386353969574,1.78762698174,0.199866056442,0.122164964676,1.98749303818,0.217146873474,0.137268066406,2.20463991165,0.217888116837,0.137940883636,2.42252802849,0.250263929367,0.166965961456,2.67279195786,j,0,1.97343087196,None,None,0.182746887207,0.102751016617,2.85553884506,0.251301050186,0.170146942139,3.10683989525,0.233829021454,0.150203943253,3.3406689167,0.218476057053,0.139369010925,3.55914497375,0.200347900391,0.101181030273,3.75949287415,0.233914136887,0.156352043152,3.99340701103,0.250829935074,0.17234992981,4.24423694611,0.300640106201,0.22181391716,4.54487705231,,,0.23360991478,0.155032873154,4.77848696709,0.300930023193,0.219795942307,5.07941699028,,,,,,,,,1,3,4,58.75650876590856,Dissertation,2018_Jul_18_2124,1,
Cuando el escultor terminó la obra tenía tres metros  de altura,La estatua era muy alta.,Verdadero,Falso,f,1,29,incongruent_right,1,1,0,1,0,B,j,1,0,1,0,0,31,31,8,,,j,1,0.5216588974,0.535973072052,0.498976945877,0.535973072052,0.251121044159,0.188414096832,0.787094116211,0.215259075165,0.151537895203,1.00235319138,0.233556032181,0.184067964554,1.23590922356,0.386798858643,0.339313983917,1.6227080822,0.250137090683,0.187129020691,1.87284517288,0.184252977371,0.121550798416,2.05709815025,0.267251968384,0.20524597168,2.32435011864,0.400264024734,0.337907075882,2.72461414337,f,1,1.45807003975,None,None,0.300567865372,0.234218835831,3.02518200874,0.302495002747,0.257103919983,3.32767701149,,,,,,,,,,,,,,,,,,,,,,,,,,,,,,,,,,,1,3,4,58.75650876590856,Dissertation,2018_Jul_18_2124,1,
a,a,Verdadero,Falso,f,0,303,congruent_left,0,0,1,0,0,A,f,1,0,1,0,0,32,32,62,,,f,1,0.469830989838,,,,,,,,,,,,,,,,,,,,,,,,,,,,None,0,,None,None,,,,,,,,,,,,,,,,,,,,,,,,,,,,,,,,,,,,,,,,,1,3,4,58.75650876590856,Dissertation,2018_Jul_18_2124,1,
a,a,Verdadero,Falso,f,0,315,incongruent_right,0,0,0,1,0,A,j,1,0,1,0,0,33,33,74,,,j,1,0.624531984329,,,,,,,,,,,,,,,,,,,,,,,,,,,,None,0,,None,None,,,,,,,,,,,,,,,,,,,,,,,,,,,,,,,,,,,,,,,,,1,3,4,58.75650876590856,Dissertation,2018_Jul_18_2124,1,
El grupo musical que tocó en el salón de conciertos era muy bueno,El grupo no tocaba bien.,Verdadero,Falso,j,0,233,incongruent_right,0,0,0,1,0,B,j,1,0,1,0,0,34,34,32,,,j,1,0.519322872162,0.55033493042,0.513298988342,0.55033493042,0.216881990433,0.15038895607,0.767216920853,0.201090097427,0.155682086945,0.96830701828,0.251057863235,0.188766002655,1.21936488152,0.198609113693,0.134156942368,1.41797399521,0.233556985855,0.184820890427,1.65153098106,0.219073057175,0.154168128967,1.87060403824,0.201252937317,0.137970209122,2.07185697556,0.198621988297,0.134044885635,2.27047896385,j,1,0.988256931305,None,None,0.185229063034,0.139652967453,2.45570802689,0.449645996094,0.386362075806,2.90535402298,0.218354940414,0.171531915665,3.12370896339,0.266601085663,0.202414035797,3.39031004906,,,,,,,,,,,,,,,,,,,,,,,,,,,,,1,3,4,58.75650876590856,Dissertation,2018_Jul_18_2124,1,
Después de que la arquitecta empezó los planos se volvieron más sencillos,Los planos siempre fueron muy sencillos.,Verdadero,Falso,j,0,22,congruent_right,1,1,1,0,0,B,j,1,0,1,0,0,35,35,1,,,j,1,0.387839078903,0.584239006042,0.538151979446,0.584239006042,0.183300018311,0.120776891708,0.767539024353,0.233906984329,0.170435905457,1.00144600868,0.215884923935,0.152142047882,1.21733093262,0.202515125275,0.138324975967,1.41984605789,0.200152873993,0.138495206833,1.61999893188,0.284769058228,0.20743393898,1.90476799011,0.249036073685,0.187181949615,2.1538040638,0.234486818314,0.171084880829,2.38829088211,j,1,1.97391486168,None,None,0.251507043839,0.168031930923,2.63979792595,0.283123016357,0.203784942627,2.92292094231,0.435505151749,0.372187137604,3.35842609406,,,,,,,,,,,,,,,,,,,,,,,,,,,,,,,,1,3,4,58.75650876590856,Dissertation,2018_Jul_18_2124,1,
Amalia puso el jamón que sus hermanos dejaron en los platos en el refrigerador después de que comieron,Los hermanos ordenaron la mesa después de comer. ,Verdadero,Falso,j,0,34,congruent_right,1,1,1,0,0,B,j,1,0,1,0,0,36,36,13,,,j,1,0.589823007584,0.550676822662,0.494746923447,0.550676822662,0.299119949341,0.219582080841,0.849796772003,0.202592134476,0.138578891754,1.05238890648,0.25005197525,0.16765999794,1.30244088173,0.216403961182,0.135117053986,1.51884484291,0.28511595726,0.207510948181,1.80396080017,0.683969974518,0.603633880615,2.48793077469,0.367032051086,0.285338878632,2.85496282578,0.267421007156,0.202521085739,3.12238383293,j,1,1.60966515541,None,None,0.217225074768,0.151212930679,3.3396089077,0.23480796814,0.152580022812,3.57441687584,0.250080108643,0.169345855713,3.82449698448,0.284501791,0.202820062637,4.10899877548,0.285797119141,0.221658945084,4.39479589462,0.266355991364,0.187814950943,4.66115188599,0.284977912903,0.204821109772,4.94612979889,0.283817052841,0.204739093781,5.22994685173,,,0.19961309433,0.120028972626,5.42955994606,,,,,,,,,,,,1,3,4,58.75650876590856,Dissertation,2018_Jul_18_2124,1,
Después de hacer la tarea Pilar volvió a jugar videojuegos,A Pilar le gustan los videojuegos.,Verdadero,Falso,f,0,241,congruent_right,0,0,1,0,0,B,j,1,0,1,0,0,37,37,40,,,j,1,0.488707065582,0.600944042206,0.553458929062,0.600944042206,0.30014705658,0.236655950546,0.901091098785,0.201041936874,0.154656171799,1.10213303566,0.198542118073,0.150179862976,1.30067515373,0.234884977341,0.186636924744,1.53556013107,0.250715017319,0.187288045883,1.78627514839,0.28354883194,0.218724966049,2.06982398033,0.402264118195,0.35472202301,2.47208809853,0.234519004822,0.172435998917,2.70660710335,f,1,1.12489509583,None,space,0.216682910919,0.171193122864,2.92329001427,,,,,,,,,,,,,,,,,,,,,,,0.97362112999,,,,,,,,,,,,,,,1,3,4,58.75650876590856,Dissertation,2018_Jul_18_2124,1,
La casa de Enrique le quedó muy limpia antes de su fiesta,Enrique limpió la casa antes de recibir a los invitados.,Verdadero,Falso,f,0,246,single_right,0,0,0,0,1,B,j,1,0,1,0,0,38,38,45,,,j,1,0.536941051483,0.719099998474,0.685832977295,0.719099998474,0.383762836456,0.323198080063,1.10286283493,0.316373109818,0.268779993057,1.41923594475,0.301727056503,0.255153894424,1.72096300125,0.283233880997,0.217824935913,2.00419688225,0.385613918304,0.338366031647,2.38981080055,0.349402189255,0.286706924438,2.73921298981,0.267269849777,0.21581697464,3.00648283958,0.268033981323,0.216496944427,3.27451682091,j,0,3.73064804077,None,None,0.352029085159,0.306198835373,3.62654590607,0.283650875092,0.217329978943,3.91019678116,0.234759092331,0.184633970261,4.14495587349,,,,,,,,,,,,,,,,,,,,,,,,,,,,,,,,1,3,4,58.75650876590856,Dissertation,2018_Jul_18_2124,1,
a,a,Verdadero,Falso,f,0,302,single_right,0,0,0,0,1,A,j,1,0,1,0,0,39,39,61,,,j,1,0.484831094742,,,,,,,,,,,,,,,,,,,,,,,,,,,,None,0,,None,None,,,,,,,,,,,,,,,,,,,,,,,,,,,,,,,,,,,,,,,,,1,3,4,58.75650876590856,Dissertation,2018_Jul_18_2124,1,
El chico toca el violín raro,El chico no sabe tocar bien.,Verdadero,Falso,f,0,257,incongruent_right,0,0,0,1,0,B,j,1,0,1,0,0,40,40,56,,,j,1,0.637748003006,0.516457080841,0.497049093246,0.516457080841,0.24991607666,0.218952894211,0.766373157501,0.201927900314,0.170783042908,0.968301057816,0.267603158951,0.217468976974,1.23590421677,0.234121799469,0.187749147415,1.47002601624,0.233332157135,0.184249162674,1.70335817337,,,,,,,,,,f,1,1.45860791206,None,None,,,,,,,,,,,,,,,,,,,,,,,,,,,,,,,,,,,,,,,,,1,3,4,58.75650876590856,Dissertation,2018_Jul_18_2124,1,
Cuando los amigos tienen una fiesta todos toman vino o cerveza,Mis amigos no toman whisky en las fiestas.,Verdadero,Falso,f,0,242,single_right,0,0,0,0,1,B,j,1,0,1,0,0,41,41,41,,,j,1,0.822785139084,0.549403190613,0.508611917496,0.549403190613,0.185148954391,0.138654947281,0.734552145004,0.267576932907,0.206038951874,1.00212907791,0.232193946838,0.168501138687,1.23432302475,0.284446001053,0.220329046249,1.5187690258,0.251410961151,0.204629898071,1.77017998695,0.233993053436,0.171685218811,2.00417304039,0.317811012268,0.254390001297,2.32198405266,0.299664020538,0.221644878387,2.6216480732,f,1,2.6612341404,None,None,0.217437028885,0.170276880264,2.83908510208,0.3351790905,0.272984027863,3.17426419258,,,,,,,,,,,,,,,,,,,,,,,,,,,,,,,,,,,1,3,4,58.75650876590856,Dissertation,2018_Jul_18_2124,1,
Después de que corrí el maratón no me parecía tan imposible,Me sentí mejor corriendo el maratón que anticipaba.,Verdadero,Falso,f,1,21,incongruent_right,1,1,0,1,0,B,j,1,0,1,0,0,42,42,0,,,j,1,0.501754999161,0.565690040588,0.525429964066,0.565690040588,0.219066143036,0.173094987869,0.784756183624,0.233863830566,0.172324895859,1.01862001419,0.200287103653,0.139014005661,1.21890711784,0.23402094841,0.188315153122,1.45292806625,0.333734035492,0.272703170776,1.78666210175,0.484484910965,0.422117948532,2.27114701271,0.251469135284,0.188210964203,2.52261614799,0.299048900604,0.237478971481,2.8216650486,f,1,5.18511605263,None,None,0.233878135681,0.182895183563,3.05554318428,0.384924888611,0.316332101822,3.44046807289,,,,,,,,,,,,,,,,,,,,,,,,,,,,,,,,,,,1,3,4,58.75650876590856,Dissertation,2018_Jul_18_2124,1,
La estudiante se encontró con su profesora para calmar su preocupación ,La profesora estaba muy preocupada.,Verdadero,Falso,f,0,260,single_left,0,0,0,0,1,B,f,1,0,1,0,0,43,43,59,,,f,1,0.469101905823,0.516644954681,0.476689100266,0.516644954681,0.28550696373,0.239344120026,0.802151918411,0.216980934143,0.154952049255,1.01913285255,0.267789125443,0.201058149338,1.286921978,0.198756933212,0.13552904129,1.48567891121,0.385240077972,0.334592103958,1.87091898918,0.218038082123,0.155689001083,2.0889570713,0.584433794022,0.522480964661,2.67339086533,0.334511041641,0.272277116776,3.00790190697,j,0,1.6920208931,None,None,0.350785970688,0.284868001938,3.35868787766,0.334098100662,0.272543907166,3.69278597832,,,,,,,,,,,,,,,,,,,,,,,,,,,,,,,,,,,1,3,4,58.75650876590856,Dissertation,2018_Jul_18_2124,1,
Este año cuando gritaron el grito sonó hasta por las montañas,Se escuchó el grito desde lejos.,Verdadero,Falso,f,1,24,incongruent_left,1,1,0,1,0,B,f,1,0,1,0,0,44,44,3,,,f,1,0.518197059631,0.518740177155,0.487211942673,0.518740177155,0.284104824066,0.22335600853,0.802845001221,0.334114074707,0.272432804108,1.13695907593,0.216005086899,0.169564008713,1.35296416283,0.385511875153,0.337962150574,1.73847603798,0.382434129715,0.318660974503,2.12091016769,0.637149810791,0.588652133942,2.75805997849,0.43479013443,0.373116016388,3.19285011292,0.583992004395,0.521778821945,3.77684211731,f,1,1.44184279442,None,None,0.451834917068,0.389803886414,4.22867703438,0.417611122131,0.351073980331,4.64628815651,,,,,,,,,,,,,,,,,,,,,,,,,,,,,,,,,,,1,3,4,58.75650876590856,Dissertation,2018_Jul_18_2124,1,
a,a,Verdadero,Falso,f,0,306,single_right,0,0,0,0,1,A,j,1,0,1,0,0,45,45,65,,,j,1,0.553993940353,,,,,,,,,,,,,,,,,,,,,,,,,,,,None,0,,None,None,,,,,,,,,,,,,,,,,,,,,,,,,,,,,,,,,,,,,,,,,1,3,4,58.75650876590856,Dissertation,2018_Jul_18_2124,1,
Cuando era niño mi papá quería ser arquitecto,Mi papá quería ser mecánico cuando era menor.,Verdadero,Falso,j,0,244,single_left,0,0,0,0,1,B,f,1,0,1,0,0,46,46,43,,,f,1,0.34897685051,0.533557891846,0.501391887665,0.533557891846,0.268770933151,0.222068071365,0.802328824997,0.18354511261,0.13871884346,0.985873937607,0.266658067703,0.202442884445,1.25253200531,0.335686922073,0.289141893387,1.58821892738,0.266889095306,0.221237182617,1.85510802269,0.400189876556,0.352624177933,2.25529789925,0.385615110397,0.338418006897,2.64091300964,,,,j,1,1.80515813828,None,None,,,,,,,,,,,,,,,,,,,,,,,,,,,,,,,,,,,,,,,,,1,3,4,58.75650876590856,Dissertation,2018_Jul_18_2124,1,
Después de preparar el desayuno Pedro limpia bien la cocina,Pedro no deja la cocina sucia.,Verdadero,Falso,f,0,238,single_right,0,0,0,0,1,B,j,1,0,1,0,0,47,47,37,,,j,1,0.504914045334,0.452327013016,0.424283981323,0.452327013016,0.299129962921,0.235136985779,0.751456975937,0.285650014877,0.237840890884,1.03710699081,0.2158639431,0.168819904327,1.25297093391,0.384817123413,0.336974859238,1.63778805733,0.285176992416,0.23489689827,1.92296504974,0.500952005386,0.439284086227,2.42391705513,0.41813993454,0.356864929199,2.84205698967,0.216815948486,0.168190002441,3.05887293816,f,1,1.80928206444,None,None,0.335171222687,0.288897037506,3.39404416084,,,,,,,,,,,,,,,,,,,,,,,,,,,,,,,,,,,,,,1,3,4,58.75650876590856,Dissertation,2018_Jul_18_2124,1,
Siempre que da un concierto la artista canta sus canciones más conocidas,La artista siempre canta sus canciones recien salidas.,Verdadero,Falso,j,0,240,single_left,0,0,0,0,1,B,f,1,0,1,0,0,48,48,39,,,f,1,0.4700050354,0.450927972794,0.410126924515,0.450927972794,0.252243995667,0.17106294632,0.70317196846,0.217046976089,0.155669927597,0.92021894455,0.233597040176,0.171597003937,1.15381598473,0.250434875488,0.186797142029,1.40425086021,0.201421022415,0.137894868851,1.60567188263,0.317133188248,0.254173994064,1.92280507088,0.266822814941,0.205562829971,2.18962788582,0.367844104767,0.306210041046,2.55747199059,j,1,2.24503803253,None,None,0.300982952118,0.237457990646,2.8584549427,0.416422128677,0.349880933762,3.27487707138,0.386703968048,0.33895277977,3.66158103943,,,,,,,,,,,,,,,,,,,,,,,,,,,,,,,,1,3,4,58.75650876590856,Dissertation,2018_Jul_18_2124,1,
La obra de teatro se presentó en el salón de conciertos,Los actores presentaron en un anfiteatro.,Verdadero,Falso,j,0,253,congruent_right,0,0,1,0,0,B,j,1,0,1,0,0,49,49,52,,,j,1,0.466783046722,0.553104162216,0.52205491066,0.553104162216,0.165841817856,0.118649959564,0.718945980072,0.185301065445,0.138884067535,0.904247045517,0.267339944839,0.222870111465,1.17158699036,0.183235168457,0.123435020447,1.35482215881,0.284649848938,0.222769021988,1.63947200775,0.233551025391,0.171452999115,1.87302303314,0.249554157257,0.204321861267,2.1225771904,0.251783847809,0.204900026321,2.37436103821,j,1,2.32430505753,None,None,0.233919143677,0.170312166214,2.60828018188,0.300714015961,0.254343986511,2.90899419785,,,,,,,,,,,,,,,,,,,,,,,,,,,,,,,,,,,1,3,4,58.75650876590856,Dissertation,2018_Jul_18_2124,1,
Los chicos pusieron el pollo que su mamá preparó en el horno en la mesa antes de comer,La mamá preparó la comida en la mesa.,Verdadero,Falso,j,0,39,congruent_left,1,1,1,0,0,B,f,1,0,1,0,0,50,50,18,,,f,1,0.371626138687,0.550199985504,0.502331972122,0.550199985504,0.267320871353,0.188600063324,0.817520856857,0.217694997787,0.138469934464,1.03521585464,0.198476076126,0.134965896606,1.23369193077,0.202816009521,0.137370824814,1.43650794029,0.400619983673,0.339162826538,1.83712792397,0.299196004868,0.217729091644,2.13632392883,0.21867609024,0.154405117035,2.35500001907,0.233963012695,0.153896093369,2.58896303177,j,1,2.47698497772,None,None,0.251260995865,0.17237496376,2.84022402763,0.249655008316,0.171398878098,3.08987903595,0.23454785347,0.154871940613,3.32442688942,0.217428922653,0.138032913208,3.54185581207,0.284317016602,0.222414016724,3.82617282867,0.249829053879,0.154120922089,4.07600188255,0.251075029373,0.172101974487,4.32707691193,0.283631086349,0.202696084976,4.61070799828,,,0.552242994308,0.486057043076,5.16295099258,,,,,,,,,,,,1,3,4,58.75650876590856,Dissertation,2018_Jul_18_2124,1,
Mi celular se me rompió cuando se me cayó al piso,Mi celular ya está roto.,Verdadero,Falso,f,0,252,single_left,0,0,0,0,1,B,f,1,0,1,0,0,51,51,51,,,f,1,0.469596147537,0.518837928772,0.493491888046,0.518837928772,0.19899892807,0.154220104218,0.717836856842,0.185406923294,0.136049985886,0.903243780136,0.417313098907,0.355992078781,1.32055687904,0.2335729599,0.187725067139,1.55412983894,0.251214981079,0.205033063889,1.80534482002,0.267148017883,0.221065998077,2.07249283791,0.217354059219,0.170904874802,2.28984689713,0.317967891693,0.271311998367,2.60781478882,f,1,2.54473590851,None,None,0.348669052124,0.299586057663,2.95648384094,0.250872135162,0.201565027237,3.2073559761,,,,,,,,,,,,,,,,,,,,,,,,,,,,,,,,,,,1,3,4,58.75650876590856,Dissertation,2018_Jul_18_2124,1,
Daniel metió el abrigo que su pareja dejó en la maleta en el clóset cuando regresaron,La pareja llevó un abrigo en su equipaje.,Verdadero,Falso,f,1,33,incongruent_right,1,1,0,1,0,B,j,1,0,1,0,0,52,52,12,,,j,1,0.501801013947,0.619135141373,0.559647798538,0.619135141373,0.199300765991,0.134829998016,0.818435907364,0.285838127136,0.220681905746,1.1042740345,0.21542096138,0.150895118713,1.31969499588,0.201844930649,0.137881040573,1.52153992653,0.517387151718,0.436492919922,2.03892707825,0.418748855591,0.354636907578,2.45767593384,0.366219997406,0.301602125168,2.82389593124,0.352372169495,0.287951946259,3.17626810074,f,1,2.72878694534,None,None,0.633672952652,0.570155858994,3.80994105339,0.469044923782,0.404952049255,4.27898597717,0.434548139572,0.355309963226,4.71353411674,0.349802017212,0.286633014679,5.06333613396,0.468553781509,0.4046459198,5.53188991547,0.434543132782,0.369254112244,5.96643304825,0.485699892044,0.421802997589,6.45213294029,,,,,,,,,,,,,,,,,,,,1,3,4,58.75650876590856,Dissertation,2018_Jul_18_2124,1,
Antes de que celebraran esa canción no era muy popular ,Nadie sabía la canción antes.,Verdadero,Falso,f,0,106,incongruent_left,0,1,0,1,0,B,f,1,0,1,0,0,53,53,22,,,f,1,0.505280017853,0.433581113815,0.401725053787,0.433581113815,0.317703008652,0.269680023193,0.751284122467,0.200080871582,0.150698184967,0.951364994049,0.267879009247,0.22136092186,1.2192440033,0.233896970749,0.188743829727,1.45314097404,0.448868989944,0.401314020157,1.90200996399,0.369879007339,0.321524143219,2.27188897133,0.501531124115,0.456745862961,2.77342009544,0.400819063187,0.354199171066,3.17423915863,f,1,2.82912898064,None,None,0.43377995491,0.388113021851,3.60801911354,,,,,,,,,,,,,,,,,,,,,,,,,,,,,,,,,,,,,,1,3,4,58.75650876590856,Dissertation,2018_Jul_18_2124,1,
Antes de comer el pastel los niños cantaron "Cumpleaños Feliz",El pastel era para el final del curso.,Verdadero,Falso,j,0,239,incongruent_left,0,0,0,1,0,B,f,1,0,1,0,0,54,54,38,,,f,1,0.439594984055,0.650827169418,0.610757112503,0.650827169418,0.198787927628,0.133050203323,0.849615097046,0.168215036392,0.120874881744,1.01783013344,0.25102686882,0.189809083939,1.26885700226,0.267586231232,0.206017017365,1.53644323349,0.251165866852,0.188716173172,1.78760910034,0.366931915283,0.302436113358,2.15454101562,0.217187166214,0.171730995178,2.37172818184,0.250900030136,0.187273025513,2.62262821198,j,1,2.84505701065,None,None,0.300251960754,0.237649917603,2.92288017273,,,,,,,,,,,,,,,,,,,,,,,,,,,,,,,,,,,,,,1,3,4,58.75650876590856,Dissertation,2018_Jul_18_2124,1,
Carlos solo cultiva verduras en el jardín que tiene en casa,Carlos no compra muchas verduras en el supermercado.,Verdadero,Falso,f,0,235,congruent_left,0,0,1,0,0,B,f,1,0,1,0,0,55,55,34,,,f,1,0.738562822342,0.568084001541,0.532634973526,0.568084001541,0.250308990479,0.204761981964,0.81839299202,0.183717012405,0.120219945908,1.00211000443,0.217694997787,0.172011852264,1.21980500221,0.68548989296,0.638827085495,1.90529489517,0.267473936081,0.206710100174,2.17276883125,0.400851011276,0.340287923813,2.57361984253,0.367211103439,0.304439067841,2.94083094597,0.28299498558,0.221036195755,3.22382593155,f,1,2.74400806427,None,None,0.402560949326,0.356614112854,3.62638688087,0.250283002853,0.204653024673,3.87666988373,,,,,,,,,,,,,,,,,,,,,,,,,,,,,,,,,,,1,3,4,58.75650876590856,Dissertation,2018_Jul_18_2124,1,
Los planos del arquitecto tienen un diseño muy creativo ,El arquitecto es muy bueno y creativo.,Verdadero,Falso,f,0,251,incongruent_left,0,0,0,1,0,B,f,1,0,1,0,0,56,56,50,,,f,1,0.438532114029,0.552479982376,0.525898933411,0.552479982376,0.184500932693,0.121254920959,0.73698091507,0.233180046082,0.168300867081,0.970160961151,0.184263944626,0.137699842453,1.15442490578,0.334466218948,0.288529157639,1.48889112473,0.2169008255,0.167338848114,1.70579195023,0.234405994415,0.189019918442,1.94019794464,0.250547170639,0.202117919922,2.19074511528,0.28417301178,0.238887071609,2.47491812706,f,1,1.38932991028,None,None,,,,,,,,,,,,,,,,,,,,,,,,,,,,,,,,,,,,,,,,,1,3,4,58.75650876590856,Dissertation,2018_Jul_18_2124,1,
Después de pintar su casa Julieta tuvo que limpiar,Las paredes de la casa están descoloridas. ,Verdadero,Falso,j,0,243,congruent_left,0,0,1,0,0,B,f,1,0,1,0,0,57,57,42,,,f,1,0.519729852676,0.433974981308,0.408538103104,0.433974981308,0.19983792305,0.152193784714,0.633812904358,0.218240022659,0.1705930233,0.852052927017,0.433557987213,0.366970062256,1.28561091423,0.201662063599,0.153746128082,1.48727297783,0.234202861786,0.186909198761,1.72147583961,0.534838199615,0.489028930664,2.25631403923,0.317560911179,0.270987987518,2.57387495041,0.333778858185,0.271983146667,2.90765380859,j,1,1.77207803726,None,None,,,,,,,,,,,,,,,,,,,,,,,,,,,,,,,,,,,,,,,,,1,3,4,58.75650876590856,Dissertation,2018_Jul_18_2124,1,
Cuando Dora compró la comida se le quedó en el mercado,Dora salió del mercado con la comida.,Verdadero,Falso,j,0,30,congruent_right,1,1,1,0,0,B,j,1,0,1,0,0,58,58,9,,,j,1,0.58905506134,0.533593177795,0.500920057297,0.533593177795,0.26785993576,0.206477165222,0.801453113556,0.384169101715,0.319036006927,1.18562221527,0.199867010117,0.150022029877,1.38548922539,0.38489985466,0.337540864944,1.77038908005,0.43439912796,0.388836860657,2.20478820801,0.28443980217,0.238727092743,2.48922801018,0.333230018616,0.284072875977,2.82245802879,0.235007047653,0.188351869583,3.05746507645,j,1,1.90720200539,None,None,0.333445072174,0.271782159805,3.39091014862,0.401480913162,0.354632854462,3.79239106178,,,,,,,,,,,,,,,,,,,,,,,,,,,,,,,,,,,1,3,4,58.75650876590856,Dissertation,2018_Jul_18_2124,1,
a,a,Verdadero,Falso,f,0,311,congruent_left,0,0,1,0,0,A,f,1,0,1,0,0,59,59,70,,,f,1,0.452346086502,,,,,,,,,,,,,,,,,,,,,,,,,,,,None,0,,None,None,,,,,,,,,,,,,,,,,,,,,,,,,,,,,,,,,,,,,,,,,1,3,4,58.75650876590856,Dissertation,2018_Jul_18_2124,1,
a,a,Verdadero,Falso,f,0,301,single_left,0,0,0,0,1,A,f,1,0,1,0,0,60,60,60,,,f,1,0.357128858566,,,,,,,,,,,,,,,,,,,,,,,,,,,,None,0,,None,None,,,,,,,,,,,,,,,,,,,,,,,,,,,,,,,,,,,,,,,,,1,3,4,58.75650876590856,Dissertation,2018_Jul_18_2124,1,
a,a,Verdadero,Falso,f,0,313,incongruent_left,0,0,0,1,0,A,f,1,0,1,0,0,61,61,72,,,f,1,0.437384128571,,,,,,,,,,,,,,,,,,,,,,,,,,,,None,0,,None,None,,,,,,,,,,,,,,,,,,,,,,,,,,,,,,,,,,,,,,,,,1,3,4,58.75650876590856,Dissertation,2018_Jul_18_2124,1,
Linda hace un paseo en las montañas todos los sábados,A Linda no le gusta la naturaleza.,Verdadero,Falso,j,0,236,single_left,0,0,0,0,1,B,f,1,0,1,0,0,62,62,35,,,f,1,0.356351852417,0.483472108841,0.450083971024,0.483472108841,0.234024047852,0.188542842865,0.717496156693,0.199576854706,0.152421951294,0.917073011398,0.268563985825,0.219937086105,1.18563699722,0.232290029526,0.18506193161,1.41792702675,0.368895053864,0.321421146393,1.78682208061,0.200556993484,0.152808189392,1.9873790741,0.485180139542,0.439199924469,2.47255921364,0.267266988754,0.221900939941,2.73982620239,j,1,1.57148194313,None,None,0.233436822891,0.189285993576,2.97326302528,,,,,,,,,,,,,,,,,,,,,,,,,,,,,,,,,,,,,,1,3,4,58.75650876590856,Dissertation,2018_Jul_18_2124,1,
a,a,Verdadero,Falso,f,0,310,single_right,0,0,0,0,1,A,j,1,0,1,0,0,63,63,69,,,j,1,0.404633998871,,,,,,,,,,,,,,,,,,,,,,,,,,,,None,0,,None,None,,,,,,,,,,,,,,,,,,,,,,,,,,,,,,,,,,,,,,,,,1,3,4,58.75650876590856,Dissertation,2018_Jul_18_2124,1,
