practiceimage,PracticeimageCorrAns,congruent,practiceSentence,practiceSentenceCompQ,compRespL,compRespR,compRespCorr,block,image,sentence,ambiguous,critical,Incongruent,Single,imageCorrAns,incongruentambiguous,criticalSentenceCode,compQ,RepeatFlankerIfNeeded.thisRepN,RepeatFlankerIfNeeded.thisTrialN,RepeatFlankerIfNeeded.thisN,RepeatFlankerIfNeeded.thisIndex,practiceFlankerLoop.thisRepN,practiceFlankerLoop.thisTrialN,practiceFlankerLoop.thisN,practiceFlankerLoop.thisIndex,RepeatPracticeSentencesIfNeeded.thisRepN,RepeatPracticeSentencesIfNeeded.thisTrialN,RepeatPracticeSentencesIfNeeded.thisN,RepeatPracticeSentencesIfNeeded.thisIndex,practiceSentenceLoop.thisRepN,practiceSentenceLoop.thisTrialN,practiceSentenceLoop.thisN,practiceSentenceLoop.thisIndex,MixedPractice.thisRepN,MixedPractice.thisTrialN,MixedPractice.thisN,MixedPractice.thisIndex,MixedPracticeTrial.thisRepN,MixedPracticeTrial.thisTrialN,MixedPracticeTrial.thisN,MixedPracticeTrial.thisIndex,blocks.thisRepN,blocks.thisTrialN,blocks.thisN,blocks.thisIndex,trials.thisRepN,trials.thisTrialN,trials.thisN,trials.thisIndex,keyResponseIntroText.keys,keyResponseIntroText.rt,keyResponseIntro2Text.keys,keyResponseIntro2Text.rt,FlankerInstructions_keyresponse.keys,FlankerInstructions_keyresponse.rt,FlankerInstructions2_keyresponse.keys,FlankerInstructions2_keyresponse.rt,PracticeFlankerResponse.keys,PracticeFlankerResponse.corr,PracticeFlankerResponse.rt,SPRInstructions_keyresponse.keys,SPRInstructions_keyresponse.rt,key_resp_5.keys,key_resp_5.rt,SPRinstructions2_keyresponse.keys,SPRinstructions2_keyresponse.rt,IRI_0,IRI_FL_0,space_0,IRI_1,IRI_FL_1,space_1,IRI_2,IRI_FL_2,space_2,IRI_3,IRI_FL_3,space_3,IRI_4,IRI_FL_4,space_4,IRI_5,IRI_FL_5,space_5,IRI_6,IRI_FL_6,space_6,IRI_7,IRI_FL_7,space_7,IRI_8,IRI_FL_8,space_8,IRI_9,IRI_FL_9,space_9,IRI_10,IRI_FL_10,space_10,IRI_11,IRI_FL_11,space_11,IRI_12,IRI_FL_12,space_12,IRI_13,IRI_FL_13,space_13,key_resp_practiceCompQ.keys,key_resp_practiceCompQ.corr,key_resp_practiceCompQ.rt,IRI_14,IRI_FL_14,space_14,IRI_15,IRI_FL_15,space_15,combinedInstructions_keyresponse.keys,combinedInstructions_keyresponse.rt,keyResponseInstructionsMixed.keys,keyResponseInstructionsMixed.rt,flankerkeyresponse.keys,flankerkeyresponse.corr,flankerkeyresponse.rt,CompQkeyresponse.keys,CompQkeyresponse.corr,CompQkeyresponse.rt,key_resp_3.keys,keyResponsePreStart.keys,keyResponsePreStart.rt,key_resp_2.keys,key_resp_4.keys,IRI_16,IRI_FL_16,space_16,IRI_17,IRI_FL_17,space_17,IRI_18,IRI_FL_18,space_18,IRI_19,IRI_FL_19,space_19,IRI_20,IRI_FL_20,space_20,key_resp_4.rt,rest_keyresponse.keys,rest_keyresponse.rt,key_resp_2.rt,session,participant,level,frameRate,expName,date,group,
,,,,,,,,,,,,,,,,,,,,,,,,,,,,,,,,,,,,,,,,,,,,,,,,,,,space,18.6977670193,,,,,,,,,,,,,,,,,,,,,,,,,,,,,,,,,,,,,,,,,,,,,,,,,,,,,,,,,,,,,,,,,,,,,,,,,,,,,,,,,,,,,,,,,,,,,,,,,,,,,1,4,4,60.00203139506772,Dissertation,2018_Jul_20_1135,3,
,,,,,,,,,,,,,,,,,,,,,,,,,,,,,,,,,,,,,,,,,,,,,,,,,,,,,space,36.5770702362,,,,,,,,,,,,,,,,,,,,,,,,,,,,,,,,,,,,,,,,,,,,,,,,,,,,,,,,,,,,,,,,,,,,,,,,,,,,,,,,,,,,,,,,,,,,,,,,,,,1,4,4,60.00203139506772,Dissertation,2018_Jul_20_1135,3,
,,,,,,,,,,,,,,,,,,,,,,,,,,,,,,,,,,,,,,,,,,,,,,,,,,,,,,,space,68.0859799385,,,,,,,,,,,,,,,,,,,,,,,,,,,,,,,,,,,,,,,,,,,,,,,,,,,,,,,,,,,,,,,,,,,,,,,,,,,,,,,,,,,,,,,,,,,,,,,,,1,4,4,60.00203139506772,Dissertation,2018_Jul_20_1135,3,
incongruent_left,f,0,A veces serán más cortas,Todas las frases son iguales.,Verdadero,Falso,j,practice,,,,,,,,,,,0,0,0,0,0,0,0,2,,,,,,,,,,,,,,,,,,,,,,,,,,,,,,,space,11.7781062126,f,1,1.20794606209,,,,,,,,,,,,,,,,,,,,,,,,,,,,,,,,,,,,,,,,,,,,,,,,,,,,,,,,,,,,,,,,,,,,,,,,,,,,,,,,,,,,,,,,,,,,1,4,4,60.00203139506772,Dissertation,2018_Jul_20_1135,3,
single_left,f,0,Las preguntas que siguen cada oración a veces serán obvias y a veces serán más difíciles,La dificultad de cada pregunta varía.,Verdadero,Falso,f,practice,,,,,,,,,,,0,0,0,0,0,1,1,4,,,,,,,,,,,,,,,,,,,,,,,,,,,,,,,,,None,0,,,,,,,,,,,,,,,,,,,,,,,,,,,,,,,,,,,,,,,,,,,,,,,,,,,,,,,,,,,,,,,,,,,,,,,,,,,,,,,,,,,,,,,,,,,,,1,4,4,60.00203139506772,Dissertation,2018_Jul_20_1135,3,
incongruent_right,j,0,Tu tarea es leer la frase de la manera más natural posible,No tienes que prestarle atención a la oración.,Verdadero,Falso,j,practice,,,,,,,,,,,0,0,0,0,0,2,2,3,,,,,,,,,,,,,,,,,,,,,,,,,,,,,,,,,j,1,1.12856483459,,,,,,,,,,,,,,,,,,,,,,,,,,,,,,,,,,,,,,,,,,,,,,,,,,,,,,,,,,,,,,,,,,,,,,,,,,,,,,,,,,,,,,,,,,,,1,4,4,60.00203139506772,Dissertation,2018_Jul_20_1135,3,
congruent_right,j,1,A veces las oraciones serán muy largas,Algunas frases son largas.,Verdadero,Falso,f,practice,,,,,,,,,,,0,0,0,0,0,3,3,1,,,,,,,,,,,,,,,,,,,,,,,,,,,,,,,,,j,1,0.71844792366,,,,,,,,,,,,,,,,,,,,,,,,,,,,,,,,,,,,,,,,,,,,,,,,,,,,,,,,,,,,,,,,,,,,,,,,,,,,,,,,,,,,,,,,,,,,1,4,4,60.00203139506772,Dissertation,2018_Jul_20_1135,3,
single_right,j,0,No pasa nada si tienes que adivinar la respuesta de vez en cuando,Es importante que no adivines.,Verdadero,Falso,j,practice,,,,,,,,,,,0,0,0,0,0,4,4,5,,,,,,,,,,,,,,,,,,,,,,,,,,,,,,,,,j,1,0.472020149231,,,,,,,,,,,,,,,,,,,,,,,,,,,,,,,,,,,,,,,,,,,,,,,,,,,,,,,,,,,,,,,,,,,,,,,,,,,,,,,,,,,,,,,,,,,,1,4,4,60.00203139506772,Dissertation,2018_Jul_20_1135,3,
congruent_left,f,1,Este es un ejemplo de las frases que verás a lo largo del experimento,Viste un ejemplo de una oración estimulo.,Verdadero,Falso,f,practice,,,,,,,,,,,0,0,0,0,0,5,5,0,,,,,,,,,,,,,,,,,,,,,,,,,,,,,,,,,f,1,0.555003881454,,,,,,,,,,,,,,,,,,,,,,,,,,,,,,,,,,,,,,,,,,,,,,,,,,,,,,,,,,,,,,,,,,,,,,,,,,,,,,,,,,,,,,,,,,,,1,4,4,60.00203139506772,Dissertation,2018_Jul_20_1135,3,
congruent_left,f,1,Este es un ejemplo de las frases que verás a lo largo del experimento,Viste un ejemplo de una oración estimulo.,Verdadero,Falso,f,practice,,,,,,,,,,,0,0,0,0,1,0,6,0,,,,,,,,,,,,,,,,,,,,,,,,,,,,,,,,,f,1,0.486097097397,,,,,,,,,,,,,,,,,,,,,,,,,,,,,,,,,,,,,,,,,,,,,,,,,,,,,,,,,,,,,,,,,,,,,,,,,,,,,,,,,,,,,,,,,,,,1,4,4,60.00203139506772,Dissertation,2018_Jul_20_1135,3,
incongruent_left,f,0,A veces serán más cortas,Todas las frases son iguales.,Verdadero,Falso,j,practice,,,,,,,,,,,0,0,0,0,1,1,7,2,,,,,,,,,,,,,,,,,,,,,,,,,,,,,,,,,f,1,0.572281122208,,,,,,,,,,,,,,,,,,,,,,,,,,,,,,,,,,,,,,,,,,,,,,,,,,,,,,,,,,,,,,,,,,,,,,,,,,,,,,,,,,,,,,,,,,,,1,4,4,60.00203139506772,Dissertation,2018_Jul_20_1135,3,
incongruent_right,j,0,Tu tarea es leer la frase de la manera más natural posible,No tienes que prestarle atención a la oración.,Verdadero,Falso,j,practice,,,,,,,,,,,0,0,0,0,1,2,8,3,,,,,,,,,,,,,,,,,,,,,,,,,,,,,,,,,j,1,0.606536149979,,,,,,,,,,,,,,,,,,,,,,,,,,,,,,,,,,,,,,,,,,,,,,,,,,,,,,,,,,,,,,,,,,,,,,,,,,,,,,,,,,,,,,,,,,,,1,4,4,60.00203139506772,Dissertation,2018_Jul_20_1135,3,
single_right,j,0,No pasa nada si tienes que adivinar la respuesta de vez en cuando,Es importante que no adivines.,Verdadero,Falso,j,practice,,,,,,,,,,,0,0,0,0,1,3,9,5,,,,,,,,,,,,,,,,,,,,,,,,,,,,,,,,,j,1,0.519377946854,,,,,,,,,,,,,,,,,,,,,,,,,,,,,,,,,,,,,,,,,,,,,,,,,,,,,,,,,,,,,,,,,,,,,,,,,,,,,,,,,,,,,,,,,,,,1,4,4,60.00203139506772,Dissertation,2018_Jul_20_1135,3,
congruent_right,j,1,A veces las oraciones serán muy largas,Algunas frases son largas.,Verdadero,Falso,f,practice,,,,,,,,,,,0,0,0,0,1,4,10,1,,,,,,,,,,,,,,,,,,,,,,,,,,,,,,,,,j,1,0.590060949326,,,,,,,,,,,,,,,,,,,,,,,,,,,,,,,,,,,,,,,,,,,,,,,,,,,,,,,,,,,,,,,,,,,,,,,,,,,,,,,,,,,,,,,,,,,,1,4,4,60.00203139506772,Dissertation,2018_Jul_20_1135,3,
single_left,f,0,Las preguntas que siguen cada oración a veces serán obvias y a veces serán más difíciles,La dificultad de cada pregunta varía.,Verdadero,Falso,f,practice,,,,,,,,,,,0,0,0,0,1,5,11,4,,,,,,,,,,,,,,,,,,,,,,,,,,,,,,,,,f,1,0.502336978912,,,,,,,,,,,,,,,,,,,,,,,,,,,,,,,,,,,,,,,,,,,,,,,,,,,,,,,,,,,,,,,,,,,,,,,,,,,,,,,,,,,,,,,,,,,,1,4,4,60.00203139506772,Dissertation,2018_Jul_20_1135,3,
single_right,j,0,No pasa nada si tienes que adivinar la respuesta de vez en cuando,Es importante que no adivines.,Verdadero,Falso,j,practice,,,,,,,,,,,0,0,0,0,2,0,12,5,,,,,,,,,,,,,,,,,,,,,,,,,,,,,,,,,j,1,0.502901792526,,,,,,,,,,,,,,,,,,,,,,,,,,,,,,,,,,,,,,,,,,,,,,,,,,,,,,,,,,,,,,,,,,,,,,,,,,,,,,,,,,,,,,,,,,,,1,4,4,60.00203139506772,Dissertation,2018_Jul_20_1135,3,
incongruent_left,f,0,A veces serán más cortas,Todas las frases son iguales.,Verdadero,Falso,j,practice,,,,,,,,,,,0,0,0,0,2,1,13,2,,,,,,,,,,,,,,,,,,,,,,,,,,,,,,,,,f,1,0.588320016861,,,,,,,,,,,,,,,,,,,,,,,,,,,,,,,,,,,,,,,,,,,,,,,,,,,,,,,,,,,,,,,,,,,,,,,,,,,,,,,,,,,,,,,,,,,,1,4,4,60.00203139506772,Dissertation,2018_Jul_20_1135,3,
congruent_left,f,1,Este es un ejemplo de las frases que verás a lo largo del experimento,Viste un ejemplo de una oración estimulo.,Verdadero,Falso,f,practice,,,,,,,,,,,0,0,0,0,2,2,14,0,,,,,,,,,,,,,,,,,,,,,,,,,,,,,,,,,f,1,0.489687919617,,,,,,,,,,,,,,,,,,,,,,,,,,,,,,,,,,,,,,,,,,,,,,,,,,,,,,,,,,,,,,,,,,,,,,,,,,,,,,,,,,,,,,,,,,,,1,4,4,60.00203139506772,Dissertation,2018_Jul_20_1135,3,
congruent_right,j,1,A veces las oraciones serán muy largas,Algunas frases son largas.,Verdadero,Falso,f,practice,,,,,,,,,,,0,0,0,0,2,3,15,1,,,,,,,,,,,,,,,,,,,,,,,,,,,,,,,,,j,1,0.468697071075,,,,,,,,,,,,,,,,,,,,,,,,,,,,,,,,,,,,,,,,,,,,,,,,,,,,,,,,,,,,,,,,,,,,,,,,,,,,,,,,,,,,,,,,,,,,1,4,4,60.00203139506772,Dissertation,2018_Jul_20_1135,3,
single_left,f,0,Las preguntas que siguen cada oración a veces serán obvias y a veces serán más difíciles,La dificultad de cada pregunta varía.,Verdadero,Falso,f,practice,,,,,,,,,,,0,0,0,0,2,4,16,4,,,,,,,,,,,,,,,,,,,,,,,,,,,,,,,,,f,1,0.50338101387,,,,,,,,,,,,,,,,,,,,,,,,,,,,,,,,,,,,,,,,,,,,,,,,,,,,,,,,,,,,,,,,,,,,,,,,,,,,,,,,,,,,,,,,,,,,1,4,4,60.00203139506772,Dissertation,2018_Jul_20_1135,3,
incongruent_right,j,0,Tu tarea es leer la frase de la manera más natural posible,No tienes que prestarle atención a la oración.,Verdadero,Falso,j,practice,,,,,,,,,,,0,0,0,0,2,5,17,3,,,,,,,,,,,,,,,,,,,,,,,,,,,,,,,,,j,1,0.556926012039,,,,,,,,,,,,,,,,,,,,,,,,,,,,,,,,,,,,,,,,,,,,,,,,,,,,,,,,,,,,,,,,,,,,,,,,,,,,,,,,,,,,,,,,,,,,1,4,4,60.00203139506772,Dissertation,2018_Jul_20_1135,3,
incongruent_left,f,0,A veces serán más cortas,Todas las frases son iguales.,Verdadero,Falso,j,practice,,,,,,,,,,,0,0,0,0,3,0,18,2,,,,,,,,,,,,,,,,,,,,,,,,,,,,,,,,,f,1,0.537947893143,,,,,,,,,,,,,,,,,,,,,,,,,,,,,,,,,,,,,,,,,,,,,,,,,,,,,,,,,,,,,,,,,,,,,,,,,,,,,,,,,,,,,,,,,,,,1,4,4,60.00203139506772,Dissertation,2018_Jul_20_1135,3,
congruent_left,f,1,Este es un ejemplo de las frases que verás a lo largo del experimento,Viste un ejemplo de una oración estimulo.,Verdadero,Falso,f,practice,,,,,,,,,,,0,0,0,0,3,1,19,0,,,,,,,,,,,,,,,,,,,,,,,,,,,,,,,,,f,1,0.521008014679,,,,,,,,,,,,,,,,,,,,,,,,,,,,,,,,,,,,,,,,,,,,,,,,,,,,,,,,,,,,,,,,,,,,,,,,,,,,,,,,,,,,,,,,,,,,1,4,4,60.00203139506772,Dissertation,2018_Jul_20_1135,3,
congruent_right,j,1,A veces las oraciones serán muy largas,Algunas frases son largas.,Verdadero,Falso,f,practice,,,,,,,,,,,0,0,0,0,3,2,20,1,,,,,,,,,,,,,,,,,,,,,,,,,,,,,,,,,j,1,0.45320391655,,,,,,,,,,,,,,,,,,,,,,,,,,,,,,,,,,,,,,,,,,,,,,,,,,,,,,,,,,,,,,,,,,,,,,,,,,,,,,,,,,,,,,,,,,,,1,4,4,60.00203139506772,Dissertation,2018_Jul_20_1135,3,
single_right,j,0,No pasa nada si tienes que adivinar la respuesta de vez en cuando,Es importante que no adivines.,Verdadero,Falso,j,practice,,,,,,,,,,,0,0,0,0,3,3,21,5,,,,,,,,,,,,,,,,,,,,,,,,,,,,,,,,,j,1,0.46789598465,,,,,,,,,,,,,,,,,,,,,,,,,,,,,,,,,,,,,,,,,,,,,,,,,,,,,,,,,,,,,,,,,,,,,,,,,,,,,,,,,,,,,,,,,,,,1,4,4,60.00203139506772,Dissertation,2018_Jul_20_1135,3,
incongruent_right,j,0,Tu tarea es leer la frase de la manera más natural posible,No tienes que prestarle atención a la oración.,Verdadero,Falso,j,practice,,,,,,,,,,,0,0,0,0,3,4,22,3,,,,,,,,,,,,,,,,,,,,,,,,,,,,,,,,,j,1,0.558265924454,,,,,,,,,,,,,,,,,,,,,,,,,,,,,,,,,,,,,,,,,,,,,,,,,,,,,,,,,,,,,,,,,,,,,,,,,,,,,,,,,,,,,,,,,,,,1,4,4,60.00203139506772,Dissertation,2018_Jul_20_1135,3,
single_left,f,0,Las preguntas que siguen cada oración a veces serán obvias y a veces serán más difíciles,La dificultad de cada pregunta varía.,Verdadero,Falso,f,practice,,,,,,,,,,,0,0,0,0,3,5,23,4,,,,,,,,,,,,,,,,,,,,,,,,,,,,,,,,,f,1,0.438059806824,,,,,,,,,,,,,,,,,,,,,,,,,,,,,,,,,,,,,,,,,,,,,,,,,,,,,,,,,,,,,,,,,,,,,,,,,,,,,,,,,,,,,,,,,,,,1,4,4,60.00203139506772,Dissertation,2018_Jul_20_1135,3,
,,,,,,,,,,,,,,,,,,,0,0,0,0,,,,,,,,,,,,,,,,,,,,,,,,,,,,,,,,,,,,,,,,,,,,,,,,,,,,,,,,,,,,,,,,,,,,,,,,,,,,,,,,,,,,,,,,,,,,,,,,,,,,,,,,,,,,,,,,,,,,,,,,,,,,,,,,,,,1,4,4,60.00203139506772,Dissertation,2018_Jul_20_1135,3,
,,,,,,,,,,,,,,,,,,,,,,,,,,,,,,,,,,,,,,,,,,,,,,,,,,,,,,,,,,,,,,space,20.6115608215,,,,,,,,,,,,,,,,,,,,,,,,,,,,,,,,,,,,,,,,,,,,,,,,,,,,,,,,,,,,,,,,,,,,,,,,,,,,,,,,,,,,,,,,,,1,4,4,60.00203139506772,Dissertation,2018_Jul_20_1135,3,
,,,,,,,,,,,,,,,,,,,,,,,,,,,,,,,,,,,,,,,,,,,,,,,,,,,,,,,,,,,,,,,,space,29.8512039185,,,,,,,,,,,,,,,,,,,,,,,,,,,,,,,,,,,,,,,,,,,,,,,,,,,,,,,,,,,,,,,,,,,,,,,,,,,,,,,,,,,,,,,,1,4,4,60.00203139506772,Dissertation,2018_Jul_20_1135,3,
congruent_left,f,1,Este es un ejemplo de las frases que verás a lo largo del experimento,Viste un ejemplo de una oración estimulo.,Verdadero,Falso,f,practice,,,,,,,,,,,,,,,,,,,0,0,0,0,0,0,0,0,,,,,,,,,,,,,,,,,,,,,,,,,,,,,,,,space,11.8532118797,1.13489198685,1.03860783577,1.13489198685,0.434789180756,0.338474035263,1.5696811676,0.517967939377,0.451474905014,2.08764910698,0.433804035187,0.388206958771,2.52145314217,0.467948913574,0.370999097824,2.98940205574,0.469269990921,0.373483896255,3.45867204666,0.451716899872,0.373095035553,3.91038894653,0.51793217659,0.456727027893,4.42832112312,0.500938892365,0.440788030624,4.92926001549,0.600870132446,0.52103304863,5.53013014793,0.484529018402,0.420368909836,6.01465916634,0.451384782791,0.388872146606,6.46604394913,0.43603014946,0.368571996689,6.90207409859,0.384100914001,0.322202920914,7.28617501259,f,1,3.88159608841,,,,,,,,,,,,,,,,,,,,,,,,,,,,,,,,,,,,,,,,,1,4,4,60.00203139506772,Dissertation,2018_Jul_20_1135,3,
congruent_right,j,1,A veces las oraciones serán muy largas,Algunas frases son largas.,Verdadero,Falso,f,practice,,,,,,,,,,,,,,,,,,,0,0,0,0,0,1,1,1,,,,,,,,,,,,,,,,,,,,,,,,,,,,,,,,,,0.910976886749,0.889567136765,0.910976886749,0.403182029724,0.355602025986,1.31415891647,0.316867113113,0.272676944733,1.63102602959,0.401422977448,0.352687120438,2.03244900703,0.399649858475,0.349765062332,2.43209886551,0.452659130096,0.422966957092,2.88475799561,0.617351055145,0.57225394249,3.50210905075,,,,,,,,,,,,,,,,,,,,,,f,1,0.455343961716,,,,,,,,,,,,,,,,,,,,,,,,,,,,,,,,,,,,,,,,,1,4,4,60.00203139506772,Dissertation,2018_Jul_20_1135,3,
incongruent_left,f,0,A veces serán más cortas,Todas las frases son iguales.,Verdadero,Falso,j,practice,,,,,,,,,,,,,,,,,,,0,0,0,0,0,2,2,2,,,,,,,,,,,,,,,,,,,,,,,,,,,,,,,,,,1.46425914764,1.44939804077,1.46425914764,0.383543014526,0.353627920151,1.84780216217,0.418527841568,0.388304948807,2.26633000374,0.3683822155,0.334963083267,2.63471221924,0.383855819702,0.356296062469,3.01856803894,,,,,,,,,,,,,,,,,,,,,,,,,,,,j,1,2.10807085037,,,,,,,,,,,,,,,,,,,,,,,,,,,,,,,,,,,,,,,,,1,4,4,60.00203139506772,Dissertation,2018_Jul_20_1135,3,
incongruent_right,j,0,Tu tarea es leer la frase de la manera más natural posible,No tienes que prestarle atención a la oración.,Verdadero,Falso,j,practice,,,,,,,,,,,,,,,,,,,0,0,0,0,0,3,3,3,,,,,,,,,,,,,,,,,,,,,,,,,,,,,,,,,,0.747385025024,0.699150800705,0.747385025024,0.418888092041,0.37327003479,1.16627311707,0.415982961655,0.370281934738,1.58225607872,0.40237402916,0.355005979538,1.98463010788,0.401496887207,0.351337909698,2.38612699509,0.399743080139,0.353682041168,2.78587007523,0.367735862732,0.287925004959,3.15360593796,0.417331218719,0.338196992874,3.57093715668,0.351298809052,0.270437002182,3.92223596573,0.384469985962,0.304149150848,4.30670595169,0.350633144379,0.300983905792,4.65733909607,0.402114868164,0.356010913849,5.05945396423,,,,,,,f,0,5.3207359314,,,,,,,,,,,,,,,,,,,,,,,,,,,,,,,,,,,,,,,,,1,4,4,60.00203139506772,Dissertation,2018_Jul_20_1135,3,
single_left,f,0,Las preguntas que siguen cada oración a veces serán obvias y a veces serán más difíciles,La dificultad de cada pregunta varía.,Verdadero,Falso,f,practice,,,,,,,,,,,,,,,,,,,0,0,0,0,0,4,4,4,,,,,,,,,,,,,,,,,,,,,,,,,,,,,,,,,,0.743768930435,0.687116861343,0.743768930435,0.385225057602,0.321696996689,1.12899398804,0.366595983505,0.300184965134,1.49558997154,0.418156862259,0.354893922806,1.9137468338,0.401393175125,0.338083982468,2.31514000893,0.351171970367,0.288009881973,2.66631197929,0.416918992996,0.355503082275,3.08323097229,0.485913038254,0.389364004135,3.56914401054,0.39904499054,0.335253953934,3.96818900108,0.436486005783,0.338057041168,4.40467500687,0.417857885361,0.354831933975,4.82253289223,0.384027004242,0.322030067444,5.20655989647,0.384526014328,0.305624961853,5.5910859108,0.399988889694,0.33792591095,5.99107480049,f,1,1.55934214592,0.3508040905,0.270694971085,6.34187889099,0.36772108078,0.304661989212,6.70959997177,,,,,,,,,,,,,,,,,,,,,,,,,,,,,,,,,,,1,4,4,60.00203139506772,Dissertation,2018_Jul_20_1135,3,
single_right,j,0,No pasa nada si tienes que adivinar la respuesta de vez en cuando,Es importante que no adivines.,Verdadero,Falso,j,practice,,,,,,,,,,,,,,,,,,,0,0,0,0,0,5,5,5,,,,,,,,,,,,,,,,,,,,,,,,,,,,,,,,,,0.494626998901,0.456159114838,0.494626998901,0.384422063828,0.323061943054,0.879049062729,0.368118047714,0.30557513237,1.24716711044,0.384140968323,0.322911977768,1.63130807877,0.366722106934,0.318820953369,1.9980301857,0.352304935455,0.289836168289,2.35033512115,0.366909980774,0.30401802063,2.71724510193,0.417117118835,0.371607065201,3.13436222076,0.335343837738,0.255696058273,3.4697060585,0.366002082825,0.318598985672,3.83570814133,0.368604898453,0.320611953735,4.20431303978,0.402044057846,0.338578939438,4.60635709763,0.401221036911,0.338671922684,5.00757813454,,,,j,1,4.38183784485,,,,,,,,,,,,,,,,,,,,,,,,,,,,,,,,,,,,,,,,,1,4,4,60.00203139506772,Dissertation,2018_Jul_20_1135,3,
,,,,,,,,,,,,,,,,,,,,,,,,,,,0,0,0,0,,,,,,,,,,,,,,,,,,,,,,,,,,,,,,,,,,,,,,,,,,,,,,,,,,,,,,,,,,,,,,,,,,,,,,,,,,,,,,,,,,,,,,,,,,,,,,,,,,,,,,,,,,,,,,,,,,,,,,,,,,,1,4,4,60.00203139506772,Dissertation,2018_Jul_20_1135,3,
,,,,,,,,,,,,,,,,,,,,,,,,,,,,,,,,,,,,,,,,,,,,,,,,,,,,,,,,,,,,,,,,,,,,,,,,,,,,,,,,,,,,,,,,,,,,,,,,,,,,,,,,,,,,,,,,,,,,,,,space,44.9942629337,,,,,,,,,,,,,,,,,,,,,,,,,,,,,,,,,1,4,4,60.00203139506772,Dissertation,2018_Jul_20_1135,3,
,,None,,,Verdadero,Falso,f,None,single_right,La madre de Julieta vive en Filadelfia así que Julieta la visita mucho,None,None,None,None,j,None,None,Julieta y su madre se ven mucho.,,,,,,,,,,,,,,,,,0,0,0,0,0,0,0,4,,,,,,,,,,,,,,,,,,,,,,,,,,0.935261011124,0.88817691803,0.935261011124,0.352443933487,0.305822134018,1.28770494461,0.365672111511,0.299800872803,1.65337705612,0.386032819748,0.318265914917,2.03940987587,0.366559028625,0.286797046661,2.4059689045,0.452701091766,0.388953924179,2.85866999626,0.43425989151,0.36959695816,3.29292988777,0.48463511467,0.422508955002,3.77756500244,0.483025074005,0.419539928436,4.26059007645,0.384457826614,0.319159984589,4.64504790306,0.402503967285,0.338312149048,5.04755187035,0.382853031158,0.319116830826,5.4304049015,0.419486045837,0.368983030319,5.84989094734,,,,,,,,,,,,,,,space,8.17321801186,j,1,0.413802862167,f,1,1.95966506004,None,,,,,,,,,,,,,,,,,,,,,,,,1,4,4,60.00203139506772,Dissertation,2018_Jul_20_1135,3,
,,None,,,Verdadero,Falso,j,None,single_left,A Iván le gusta cocinar y toma clases de gastronomía,None,None,None,None,f,None,None,Iván cocina mucho.,,,,,,,,,,,,,,,,,0,0,0,0,0,1,1,5,,,,,,,,,,,,,,,,,,,,,,,,,,0.617658853531,0.576251983643,0.617658853531,0.35130405426,0.287005901337,0.968962907791,0.35048699379,0.287021875381,1.31944990158,0.384433031082,0.320713996887,1.70388293266,0.419439077377,0.372651815414,2.12332201004,0.416783809662,0.356070995331,2.5401058197,0.418037176132,0.354994058609,2.95814299583,0.366609811783,0.319061994553,3.32475280762,0.452789068222,0.404768943787,3.77754187584,0.383888959885,0.321159124374,4.16143083572,,,,,,,,,,,,,,,,,,,,,,,,,,f,1,0.471205949783,f,0,1.28947210312,None,,,,,,,,,,,,,,,,,,,,,,,,1,4,4,60.00203139506772,Dissertation,2018_Jul_20_1135,3,
,,None,,,Verdadero,Falso,f,None,incongruent_right,Estudio mucho durante la semana para poder divertirme durante el fin de semana,None,None,None,None,j,None,None,No voy a la biblioteca mucho los fines de semana.,,,,,,,,,,,,,,,,,0,0,0,0,0,2,2,2,,,,,,,,,,,,,,,,,,,,,,,,,,0.600780010223,0.521330833435,0.600780010223,0.349051952362,0.286265850067,0.949831962585,0.352475166321,0.28470993042,1.30230712891,0.36699795723,0.30544090271,1.66930508614,0.351984977722,0.288597106934,2.02129006386,0.399705886841,0.336482048035,2.4209959507,0.419278144836,0.354991197586,2.84027409554,0.349146842957,0.285593986511,3.18942093849,0.385132074356,0.320869922638,3.57455301285,0.418313026428,0.354995012283,3.99286603928,0.351068019867,0.288254976273,4.34393405914,0.401376962662,0.338606834412,4.7453110218,0.351125955582,0.288170099258,5.09643697739,,,,,,,,,,,,,,,,,j,1,0.84007692337,f,1,3.19408488274,None,,,,,,,,,,,,,,,,,,,,,,,,1,4,4,60.00203139506772,Dissertation,2018_Jul_20_1135,3,
,,None,,,Verdadero,Falso,f,None,congruent_right,Me gusta vivir en la ciudad de Washington porque tiene mucha historia,None,None,None,None,j,None,None,Estoy contento viviendo en D.C.,,,,,,,,,,,,,,,,,0,0,0,0,0,3,3,3,,,,,,,,,,,,,,,,,,,,,,,,,,0.635771036148,0.591800928116,0.635771036148,0.33295083046,0.269165992737,0.968721866608,0.352009057999,0.287357091904,1.32073092461,0.383933067322,0.317170143127,1.70466399193,0.401979923248,0.338965177536,2.10664391518,0.349992990494,0.283540010452,2.45663690567,0.368545055389,0.304875135422,2.82518196106,0.334060907364,0.271383047104,3.15924286842,0.401234149933,0.323429107666,3.56047701836,0.451095819473,0.388423919678,4.01157283783,0.417402982712,0.354253053665,4.42897582054,0.36722111702,0.305473089218,4.79619693756,,,,,,,,,,,,,,,,,,,,j,1,0.570127010345,f,1,2.2077858448,None,,,,,,,,,,,,,,,,,,,,,,,,1,4,4,60.00203139506772,Dissertation,2018_Jul_20_1135,3,
,,None,,,Verdadero,Falso,j,None,congruent_left,El chico corrió en el parque ayer,None,None,None,None,f,None,None,El chico no hizo nada ayer.,,,,,,,,,,,,,,,,,0,0,0,0,0,4,4,0,,,,,,,,,,,,,,,,,,,,,,,,,,0.567692041397,0.541238069534,0.567692041397,0.366446971893,0.336273193359,0.93413901329,0.384111166,0.354079008102,1.31825017929,0.384371995926,0.320267915726,1.70262217522,0.384345054626,0.337067842484,2.08696722984,0.367389917374,0.320259094238,2.45435714722,0.402243852615,0.339426994324,2.85660099983,,,,,,,,,,,,,,,,,,,,,,,,,,,,,,,,,,,f,1,0.506036996841,j,1,1.60815811157,None,,,,,,,,,,,,,,,,,,,,,,,,1,4,4,60.00203139506772,Dissertation,2018_Jul_20_1135,3,
,,None,,,Verdadero,Falso,j,None,incongruent_left,Mi estación preferida es el verano,None,None,None,None,f,None,None,Me gusta el invierno más que las otras estaciones.,,,,,,,,,,,,,,,,,0,0,0,0,0,5,5,1,,,,,,,,,,,,,,,,,,,,,,,,,,0.699917078018,0.6760430336,0.699917078018,0.350954055786,0.319071054459,1.0508711338,0.335554838181,0.305820941925,1.38642597198,0.382802963257,0.320322990417,1.76922893524,0.417788982391,0.370463848114,2.18701791763,0.351343154907,0.287594795227,2.53836107254,,,,,,,,,,,,,,,,,,,,,,,,,,,,,,,,,,,,,,f,1,0.604535102844,j,1,2.45899796486,None,,,,,,,,,,,,,,,,,,,,,,,,1,4,4,60.00203139506772,Dissertation,2018_Jul_20_1135,3,
,,,,,,,,,,,,,,,,,,,,,,,,,,,,,,,,,,,0,0,0,0,,,,,,,,,,,,,,,,,,,,,,,,,,,,,,,,,,,,,,,,,,,,,,,,,,,,,,,,,,,,,,,,,,,,,,,,,,,,,,,,,,,,,,,,,,,,,,,,,,,,,,,,,,,,,,,,,,,1,4,4,60.00203139506772,Dissertation,2018_Jul_20_1135,3,
,,,,,,,,,,,,,,,,,,,,,,,,,,,,,,,,,,,,,,,,,,,,,,,,,,,,,,,,,,,,,,,,,,,,,,,,,,,,,,,,,,,,,,,,,,,,,,,,,,,,,,,,,,,,,,,,,,,,,,,,,,,,,,,,,,space,71.3380529881,,,,,,,,,,,,,,,,,,,,,,1,4,4,60.00203139506772,Dissertation,2018_Jul_20_1135,3,
,,1,,,Verdadero,Falso,f,A,congruent_right,El reloj de mi mamá tiene diamantes pero le queda muy bien,0,0,0,0,j,0,223,Mi madre tiene un reloj bonito.,,,,,,,,,,,,,,,,,,,,,,,,,0,0,0,0,0,0,0,52,,,,,,,,,,,,,,,,,,0.567691087723,0.526216030121,0.567691087723,0.333760976791,0.288131952286,0.901452064514,0.316357135773,0.251099824905,1.21780920029,0.302026987076,0.257959127426,1.51983618736,0.284175872803,0.221405982971,1.80401206017,0.351583957672,0.284790039062,2.15559601784,0.451054096222,0.38606595993,2.60665011406,0.382670879364,0.336049079895,2.98932099342,0.335290193558,0.284255027771,3.32461118698,0.333792924881,0.287573099136,3.65840411186,0.333297967911,0.270004987717,3.99170207977,0.318788051605,0.270683050156,4.31049013138,,,,,,,,,,,,,,,,,,,,j,1,0.486576080322,f,1,1.62554788589,,,,None,None,,,,,,,,,,,,,,,,,,,,1,4,4,60.00203139506772,Dissertation,2018_Jul_20_1135,3,
,,0,,,Verdadero,Falso,j,A,single_left,Ana vació el lavaplatos en la cocina,0,0,0,1,f,0,206,Ana no ayudó con los quehaceres.,,,,,,,,,,,,,,,,,,,,,,,,,0,0,0,0,0,1,1,35,,,,,,,,,,,,,,,,,,0.383111000061,0.337218999863,0.383111000061,0.352469205856,0.322704076767,0.735580205917,0.334290981293,0.285088062286,1.06987118721,0.281973838806,0.236127853394,1.35184502602,0.38511800766,0.337244033813,1.73696303368,0.367151975632,0.318387985229,2.10411500931,0.284366130829,0.252467870712,2.38848114014,,,,,,,,,,,,,,,,,,,,,,,,,,,,,,,,,,,f,1,0.419720172882,j,1,1.54086303711,,,,None,None,,,,,,,,,,,,,,,,,,,,1,4,4,60.00203139506772,Dissertation,2018_Jul_20_1135,3,
,,0,,,Verdadero,Falso,f,A,incongruent_left,Después de que comieron el pollo se enfrió inmediatamente ,1,1,1,0,f,1,1,Comieron el pollo caliente.,,,,,,,,,,,,,,,,,,,,,,,,,0,0,0,0,0,2,2,0,,,,,,,,,,,,,,,,,,0.533305168152,0.494196176529,0.533305168152,0.301172018051,0.25084900856,0.834477186203,0.284471988678,0.237075805664,1.11894917488,0.284971952438,0.234613895416,1.40392112732,0.317234992981,0.271751880646,1.7211561203,0.315833091736,0.252914905548,2.03698921204,0.318706989288,0.271873950958,2.35569620132,0.416704893112,0.366358041763,2.77240109444,0.319391965866,0.272032976151,3.0917930603,,,,,,,,,,,,,,,,,,,,,,,,,,,,,f,1,0.584404945374,f,1,2.29339790344,,,,None,None,,,,,,,,,,,,,,,,,,,,1,4,4,60.00203139506772,Dissertation,2018_Jul_20_1135,3,
,,0,,,Verdadero,Falso,f,A,single_left,The boy,0,0,0,1,f,0,305,a,,,,,,,,,,,,,,,,,,,,,,,,,0,0,0,0,0,3,3,64,,,,,,,,,,,,,,,,,,,,,,,,,,,,,,,,,,,,,,,,,,,,,,,,,,,,,,,,,,,,,,,,,,,,,,,,,f,1,0.670897960663,None,0,,,,,None,None,,,,,,,,,,,,,,,,,,,,1,4,4,60.00203139506772,Dissertation,2018_Jul_20_1135,3,
,,1,,,Verdadero,Falso,f,A,congruent_left,The boy,0,0,0,0,f,0,307,a,,,,,,,,,,,,,,,,,,,,,,,,,0,0,0,0,0,4,4,66,,,,,,,,,,,,,,,,,,,,,,,,,,,,,,,,,,,,,,,,,,,,,,,,,,,,,,,,,,,,,,,,,,,,,,,,,f,1,0.939206123352,None,0,,,,,None,None,,,,,,,,,,,,,,,,,,,,1,4,4,60.00203139506772,Dissertation,2018_Jul_20_1135,3,
,,1,,,Verdadero,Falso,j,A,congruent_left,Cuando los jardineros terminaron el jardín quedó lleno de flores,1,1,0,0,f,0,10,Los jardineros todavía no acaban su trabajo.,,,,,,,,,,,,,,,,,,,,,,,,,0,0,0,0,0,5,5,9,,,,,,,,,,,,,,,,,,0.583548069,0.544579029083,0.583548069,0.333832979202,0.270041942596,0.917381048203,0.301557064056,0.254333972931,1.21893811226,0.300318002701,0.253713130951,1.51925611496,0.400786876678,0.353235960007,1.92004299164,0.400802135468,0.352474212646,2.32084512711,0.317781925201,0.253458023071,2.63862705231,0.38561296463,0.338948011398,3.02424001694,0.334139108658,0.284133911133,3.3583791256,0.317856788635,0.254398822784,3.67623591423,,,,,,,,,,,,,,,,,,,,,,,,,,f,1,0.520597219467,j,1,1.7072019577,,,,None,None,,,,,,,,,,,,,,,,,,,,1,4,4,60.00203139506772,Dissertation,2018_Jul_20_1135,3,
,,0,,,Verdadero,Falso,j,A,single_left,Mis hijas están saltando la cuerda en el jardín,0,0,0,1,f,0,226,A mis hijas no les gusta jugar en el jardín.,,,,,,,,,,,,,,,,,,,,,,,,,0,0,0,0,0,6,6,55,,,,,,,,,,,,,,,,,,0.751621007919,0.72293806076,0.751621007919,0.350368022919,0.30527305603,1.10198903084,0.284207105637,0.238045930862,1.38619613647,0.351145029068,0.305853128433,1.73734116554,0.317533016205,0.268135070801,2.05487418175,0.317380905151,0.270982027054,2.3722550869,0.367564916611,0.321288108826,2.73982000351,0.334933042526,0.289206981659,3.07475304604,0.283901929855,0.238410949707,3.35865497589,,,,,,,,,,,,,,,,,,,,,,,,,,,,,f,1,0.489207029343,j,1,1.70742702484,,,,None,None,,,,,,,,,,,,,,,,,,,,1,4,4,60.00203139506772,Dissertation,2018_Jul_20_1135,3,
,,1,,,Verdadero,Falso,f,A,congruent_left,El pescado está listo para comer,0,0,0,0,f,0,229,Vamos a comer pescado.,,,,,,,,,,,,,,,,,,,,,,,,,0,0,0,0,0,7,7,58,,,,,,,,,,,,,,,,,,0.635710000992,0.599296092987,0.635710000992,0.316924095154,0.270745992661,0.952634096146,0.318531990051,0.273121118546,1.2711660862,0.316691875458,0.287779808044,1.58785796165,0.316929101944,0.269959926605,1.9047870636,0.318145990372,0.289398193359,2.22293305397,,,,,,,,,,,,,,,,,,,,,,,,,,,,,,,,,,,,,,f,1,0.486577987671,f,1,1.12123990059,,,,None,None,,,,,,,,,,,,,,,,,,,,1,4,4,60.00203139506772,Dissertation,2018_Jul_20_1135,3,
,,0,,,Verdadero,Falso,f,A,incongruent_right,Cuando Dora salió la comida se le quedó en el orno quemándose,0,1,1,0,j,0,130,Dora salió despistada.,,,,,,,,,,,,,,,,,,,,,,,,,0,0,0,0,0,8,8,24,,,,,,,,,,,,,,,,,,0.565776109695,0.523931980133,0.565776109695,0.36915397644,0.321525812149,0.934930086136,0.366748094559,0.320130109787,1.30167818069,0.385797023773,0.322157144547,1.68747520447,0.334199905396,0.271881103516,2.02167510986,0.367670059204,0.306057214737,2.38934516907,0.350334882736,0.287626981735,2.7396800518,0.300189971924,0.23916220665,3.03987002373,0.384557008743,0.320774078369,3.42442703247,0.400591135025,0.35317492485,3.8250181675,0.302130937576,0.254326105118,4.12714910507,0.317821025848,0.271286010742,4.44497013092,,,,,,,,,,,,,,,,,,,,j,1,0.586711883545,f,1,4.91391301155,,,,None,None,,,,,,,,,,,,,,,,,,,,1,4,4,60.00203139506772,Dissertation,2018_Jul_20_1135,3,
,,1,,,Verdadero,Falso,f,A,congruent_left,The boy,0,0,0,0,f,0,303,a,,,,,,,,,,,,,,,,,,,,,,,,,0,0,0,0,0,9,9,62,,,,,,,,,,,,,,,,,,,,,,,,,,,,,,,,,,,,,,,,,,,,,,,,,,,,,,,,,,,,,,,,,,,,,,,,,f,1,0.485414028168,None,0,,,,,None,None,,,,,,,,,,,,,,,,,,,,1,4,4,60.00203139506772,Dissertation,2018_Jul_20_1135,3,
,,1,,,Verdadero,Falso,f,A,congruent_right,The boy,0,0,0,0,j,0,308,a,,,,,,,,,,,,,,,,,,,,,,,,,0,0,0,0,0,10,10,67,,,,,,,,,,,,,,,,,,,,,,,,,,,,,,,,,,,,,,,,,,,,,,,,,,,,,,,,,,,,,,,,,,,,,,,,,j,1,0.488800048828,None,0,,,,,None,None,,,,,,,,,,,,,,,,,,,,1,4,4,60.00203139506772,Dissertation,2018_Jul_20_1135,3,
,,0,,,Verdadero,Falso,j,A,incongruent_left,Justo cuando llegaban el carro viejo se chocó contra un poste de luz,0,1,1,0,f,0,123,Llegaron sin incidente.,,,,,,,,,,,,,,,,,,,,,,,,,0,0,0,0,0,11,11,21,,,,,,,,,,,,,,,,,,0.584363937378,0.543874025345,0.584363937378,0.38315987587,0.318588972092,0.967523813248,0.268429040909,0.205173015594,1.23595285416,0.334357976913,0.273143053055,1.57031083107,0.283686161041,0.222098112106,1.85399699211,0.316025018692,0.253220081329,2.1700220108,0.302440881729,0.251420974731,2.47246289253,0.30139708519,0.23829293251,2.77385997772,0.300164937973,0.238113880157,3.0740249157,0.300616979599,0.240148067474,3.37464189529,0.317944049835,0.239027023315,3.69258594513,0.283406972885,0.237040996552,3.97599291801,0.284444093704,0.22083902359,4.26043701172,,,,,,,,,,,,,,,,,f,1,0.434963941574,j,1,1.33886408806,,,,None,None,,,,,,,,,,,,,,,,,,,,1,4,4,60.00203139506772,Dissertation,2018_Jul_20_1135,3,
,,1,,,Verdadero,Falso,j,A,congruent_left,Mi mamá guardó la escultura que hizo en la clase en su mesa de trabajo,1,1,0,0,f,0,14,La escultura está en mi estudio de arte.,,,,,,,,,,,,,,,,,,,,,,,,,0,0,0,0,0,12,12,13,,,,,,,,,,,,,,,,,,0.534399986267,0.494224071503,0.534399986267,0.315654993057,0.253185033798,0.850054979324,0.285691022873,0.238877058029,1.1357460022,0.250586986542,0.187670946121,1.38633298874,0.300985097885,0.239151954651,1.68731808662,0.300440073013,0.239681959152,1.98775815964,0.317171812057,0.255176067352,2.30492997169,0.401455163956,0.338071107864,2.70638513565,0.349591016769,0.288130998611,3.05597615242,0.300314903259,0.21940279007,3.35629105568,0.319112062454,0.255355834961,3.67540311813,0.301208019257,0.240186929703,3.97661113739,0.299265861511,0.236877202988,4.2758769989,0.301023006439,0.22008895874,4.57690000534,,,,0.318269968033,0.2554500103,4.89516997337,,,,,,,,f,1,0.505225896835,j,1,1.42369508743,,,,None,None,,,,,,,,,,,,,,,,,,,,1,4,4,60.00203139506772,Dissertation,2018_Jul_20_1135,3,
,,0,,,Verdadero,Falso,f,A,single_right,Mi hermana guardó en su celular el número del chico guapo,0,0,0,1,j,0,208,A mi hermana le gustaría salir con el chico.,,,,,,,,,,,,,,,,,,,,,,,,,0,0,0,0,0,13,13,37,,,,,,,,,,,,,,,,,,0.585323810577,0.55732011795,0.585323810577,0.383275032043,0.333245992661,0.968598842621,0.267246007919,0.216167211533,1.23584485054,0.302452087402,0.254419088364,1.53829693794,0.300902843475,0.25453209877,1.83919978142,0.267134189606,0.220806837082,2.10633397102,0.299359798431,0.249222993851,2.40569376945,0.333886146545,0.286741018295,2.739579916,0.293487071991,0.236265182495,3.03306698799,0.325860977173,0.236854076385,3.35892796516,0.334115982056,0.287760019302,3.69304394722,,,,,,,,,,,,,,,,,,,,,,,j,1,0.520073890686,f,1,1.89087510109,,,,None,None,,,,,,,,,,,,,,,,,,,,1,4,4,60.00203139506772,Dissertation,2018_Jul_20_1135,3,
,,0,,,Verdadero,Falso,f,A,incongruent_right,Después de que la arquitecta renunció los planos cambiaron mucho,0,1,1,0,j,0,122,El diseño final no era de la arquitecta.,,,,,,,,,,,,,,,,,,,,,,,,,0,0,0,0,0,14,14,20,,,,,,,,,,,,,,,,,,0.649499893188,0.609606981277,0.649499893188,0.335437059402,0.287485122681,0.984936952591,0.30066204071,0.254205942154,1.2855989933,0.299342870712,0.251861095428,1.58494186401,0.268354177475,0.17108798027,1.85329604149,0.30088186264,0.201678991318,2.15417790413,0.434442043304,0.354038000107,2.58861994743,0.334656000137,0.255702972412,2.92327594757,0.350569009781,0.287644863129,3.27384495735,0.34999704361,0.285224914551,3.62384200096,,,,,,,,,,,,,,,,,,,,,,,,,,j,1,0.790396928787,f,1,1.87515997887,,,,None,None,,,,,,,,,,,,,,,,,,,,1,4,4,60.00203139506772,Dissertation,2018_Jul_20_1135,3,
,,1,,,Verdadero,Falso,j,A,congruent_left,Los novios montaron la mesa que su amigo les dejó en su porche en la cocina de su nuevo apartamento ,1,1,0,0,f,0,18,Los novios pusieron la mesa en su porche.,,,,,,,,,,,,,,,,,,,,,,,,,0,0,0,0,0,15,15,17,,,,,,,,,,,,,,,,,,0.717777967453,0.651502132416,0.717777967453,0.433427095413,0.367218017578,1.15120506287,0.335407018661,0.254848003387,1.48661208153,0.333899974823,0.255553007126,1.82051205635,0.417306900024,0.337661027908,2.23781895638,0.318234920502,0.238166809082,2.55605387688,0.334151029587,0.255067110062,2.89020490646,0.31661605835,0.235975980759,3.20682096481,0.351851940155,0.287526130676,3.55867290497,0.333470106125,0.250362873077,3.89214301109,0.316977977753,0.236498117447,4.20912098885,0.318484067917,0.250560998917,4.52760505676,0.301339864731,0.239690065384,4.82894492149,0.283692121506,0.205584049225,5.112637043,,,,0.332749843597,0.253166913986,5.4453868866,0.31822013855,0.253386974335,5.76360702515,,,,,f,1,0.686059951782,j,1,3.54735898972,,,,None,None,0.302011013031,0.222584009171,6.06561803818,0.333436012268,0.25111413002,6.39905405045,0.300449848175,0.219305038452,6.69950389862,0.317921161652,0.254658937454,7.01742506027,,,,,,,,1,4,4,60.00203139506772,Dissertation,2018_Jul_20_1135,3,
,,1,,,Verdadero,Falso,f,A,congruent_left,Justo después de bajarme el autobús falló de repente ,0,0,0,0,f,0,213,Deben mandar el autobús al mecánico.,,,,,,,,,,,,,,,,,,,,,,,,,0,0,0,0,0,16,16,42,,,,,,,,,,,,,,,,,,0.600555896759,0.564404964447,0.600555896759,0.3356590271,0.272177934647,0.936214923859,0.317011117935,0.271226882935,1.25322604179,0.267239809036,0.219418048859,1.52046585083,0.285170078278,0.238038063049,1.80563592911,0.300597906113,0.255201816559,2.10623383522,0.317308187485,0.270816087723,2.42354202271,0.301029920578,0.25471997261,2.72457194328,0.351197004318,0.284716129303,3.0757689476,,,,,,,,,,,,,,,,,,,,,,,,,,,,,f,1,0.55048418045,f,1,2.34564614296,,,,None,None,,,,,,,,,,,,,,,,,,,,1,4,4,60.00203139506772,Dissertation,2018_Jul_20_1135,3,
,,0,,,Verdadero,Falso,f,A,incongruent_right,Cuando mi madre lavaba la ropa quedaba muy limpia,1,1,1,0,j,1,8,Mi madre me ayuda con el lavado de ropa.,,,,,,,,,,,,,,,,,,,,,,,,,0,0,0,0,0,17,17,7,,,,,,,,,,,,,,,,,,0.551805019379,0.521214962006,0.551805019379,0.334852933884,0.288763046265,0.886657953262,0.267668962479,0.22150182724,1.15432691574,0.283873081207,0.237534046173,1.43819999695,0.283366918564,0.239531993866,1.72156691551,0.267030000687,0.221347808838,1.9885969162,0.266832113266,0.218902111053,2.25542902946,0.284510850906,0.235209226608,2.53993988037,0.33548617363,0.285306930542,2.875426054,,,,,,,,,,,,,,,,,,,,,,,,,,,,,j,1,0.604603052139,f,1,3.01163077354,,,,None,None,,,,,,,,,,,,,,,,,,,,1,4,4,60.00203139506772,Dissertation,2018_Jul_20_1135,3,
,,0,,,Verdadero,Falso,j,A,single_right,El señor gordo tomó un café solo,0,0,0,1,j,0,228,El señor estaba solo cuando bebió el café.,,,,,,,,,,,,,,,,,,,,,,,,,0,0,0,0,0,18,18,57,,,,,,,,,,,,,,,,,,0.582667827606,0.557852983475,0.582667827606,0.334995985031,0.305890083313,0.917663812637,0.301066160202,0.254467964172,1.21872997284,0.318109989166,0.267811059952,1.53683996201,0.283726930618,0.240616798401,1.82056689262,0.26597905159,0.217839002609,2.08654594421,0.301893949509,0.272357940674,2.38843989372,,,,,,,,,,,,,,,,,,,,,,,,,,,,,,,,,,,j,1,0.440546989441,j,1,5.36899709702,,,,None,None,,,,,,,,,,,,,,,,,,,,1,4,4,60.00203139506772,Dissertation,2018_Jul_20_1135,3,
,,1,,,Verdadero,Falso,f,A,congruent_left,Los autobuses en Madrid tienen más de quince pies de altura ,0,0,0,0,f,0,225,Los autobuses madrileños son muy altos.,,,,,,,,,,,,,,,,,,,,,,,,,0,0,0,0,0,19,19,54,,,,,,,,,,,,,,,,,,0.601644039154,0.534004211426,0.601644039154,0.300858974457,0.238811969757,0.902503013611,0.299958944321,0.221281051636,1.20246195793,0.368260145187,0.305786132812,1.57072210312,0.366894960403,0.303814172745,1.93761706352,0.334893941879,0.254599094391,2.2725110054,0.316880941391,0.26993894577,2.58939194679,0.300837993622,0.253369808197,2.89022994041,0.317584991455,0.254647016525,3.20781493187,0.284286975861,0.220566987991,3.49210190773,0.351045131683,0.3047311306,3.84314703941,,,,,,,,,,,,,,,,,,,,,,,f,1,0.653622865677,f,1,2.37535619736,,,,None,None,,,,,,,,,,,,,,,,,,,,1,4,4,60.00203139506772,Dissertation,2018_Jul_20_1135,3,
,,1,,,Verdadero,Falso,j,A,congruent_right,María acomodó las revistas que Gabriela dejó bajo la cama en el librero cuando las encontró,1,1,0,0,j,0,15,Las revistas de Gabriela están escondidas bajo la cama.,,,,,,,,,,,,,,,,,,,,,,,,,0,0,0,0,0,20,20,14,,,,,,,,,,,,,,,,,,0.634801864624,0.563734054565,0.634801864624,0.349542140961,0.250941038132,0.984344005585,0.302605867386,0.223232030869,1.28694987297,0.299993991852,0.189054965973,1.58694386482,0.385013103485,0.319723129272,1.97195696831,0.300031900406,0.23465013504,2.27198886871,0.300765991211,0.239042043686,2.57275485992,0.301287174225,0.239066123962,2.87404203415,0.33442902565,0.255167961121,3.2084710598,0.350251913071,0.288288116455,3.55872297287,0.301542043686,0.235341787338,3.86026501656,0.283283948898,0.218101978302,4.14354896545,0.283446073532,0.202690124512,4.42699503899,0.317644834518,0.221472978592,4.7446398735,,,,0.317650079727,0.253221035004,5.06228995323,0.318072080612,0.253786802292,5.38036203384,,,,,j,1,0.755421161652,f,0,2.71244502068,,,,None,None,,,,,,,,,,,,,,,,,,,,1,4,4,60.00203139506772,Dissertation,2018_Jul_20_1135,3,
,,0,,,Verdadero,Falso,j,A,incongruent_left,El músico colocó el instrumento que usó en su lugar después del concierto,0,1,1,0,f,0,131,El músico dejó todo desorganizado después del concierto.,,,,,,,,,,,,,,,,,,,,,,,,,0,0,0,0,0,21,21,25,,,,,,,,,,,,,,,,,,0.684205055237,0.632126092911,0.684205055237,0.334132909775,0.270062208176,1.01833796501,0.267500162125,0.204188108444,1.28583812714,0.299575805664,0.236721992493,1.5854139328,0.300716161728,0.21781206131,1.88613009453,0.317113876343,0.219204902649,2.20324397087,0.368027925491,0.304276943207,2.57127189636,0.434303998947,0.354395866394,3.00557589531,0.418503046036,0.338201999664,3.42407894135,0.468259096146,0.404552936554,3.89233803749,0.568289995193,0.505301952362,4.46062803268,0.718405008316,0.622407913208,5.179033041,0.334462881088,0.239024162292,5.51349592209,,,,,,,,,,,,,,,,,f,1,0.707103013992,j,1,2.01163601875,,,,None,None,,,,,,,,,,,,,,,,,,,,1,4,4,60.00203139506772,Dissertation,2018_Jul_20_1135,3,
,,1,,,Verdadero,Falso,f,A,congruent_right,The boy,0,0,0,0,j,0,304,a,,,,,,,,,,,,,,,,,,,,,,,,,0,0,0,0,0,22,22,63,,,,,,,,,,,,,,,,,,,,,,,,,,,,,,,,,,,,,,,,,,,,,,,,,,,,,,,,,,,,,,,,,,,,,,,,,j,1,0.488358974457,None,0,,,,,None,None,,,,,,,,,,,,,,,,,,,,1,4,4,60.00203139506772,Dissertation,2018_Jul_20_1135,3,
,,0,,,Verdadero,Falso,f,A,incongruent_right,The boy,0,0,1,0,j,0,315,a,,,,,,,,,,,,,,,,,,,,,,,,,0,0,0,0,0,23,23,74,,,,,,,,,,,,,,,,,,,,,,,,,,,,,,,,,,,,,,,,,,,,,,,,,,,,,,,,,,,,,,,,,,,,,,,,,j,1,0.589118003845,None,0,,,,,None,None,,,,,,,,,,,,,,,,,,,,1,4,4,60.00203139506772,Dissertation,2018_Jul_20_1135,3,
,,0,,,Verdadero,Falso,f,A,single_left,The boy,0,0,0,1,f,0,314,a,,,,,,,,,,,,,,,,,,,,,,,,,0,0,0,0,0,24,24,73,,,,,,,,,,,,,,,,,,,,,,,,,,,,,,,,,,,,,,,,,,,,,,,,,,,,,,,,,,,,,,,,,,,,,,,,,f,1,0.522626876831,None,0,,,,,None,None,,,,,,,,,,,,,,,,,,,,1,4,4,60.00203139506772,Dissertation,2018_Jul_20_1135,3,
,,0,,,Verdadero,Falso,f,A,incongruent_left,The boy,0,0,1,0,f,0,313,a,,,,,,,,,,,,,,,,,,,,,,,,,0,0,0,0,0,25,25,72,,,,,,,,,,,,,,,,,,,,,,,,,,,,,,,,,,,,,,,,,,,,,,,,,,,,,,,,,,,,,,,,,,,,,,,,,f,1,0.607988834381,None,0,,,,,None,None,,,,,,,,,,,,,,,,,,,,1,4,4,60.00203139506772,Dissertation,2018_Jul_20_1135,3,
,,0,,,Verdadero,Falso,f,A,single_left,Mientras la esposa toca el piano el esposo lava los platos,0,0,0,1,f,0,214,La esposa sabe tocar un instrumento.,,,,,,,,,,,,,,,,,,,,,,,,,0,0,0,0,0,26,26,43,,,,,,,,,,,,,,,,,,0.550868034363,0.514617919922,0.550868034363,0.367744922638,0.30678486824,0.918612957001,0.332973957062,0.283545970917,1.25158691406,0.301851034164,0.254736185074,1.55343794823,0.332904100418,0.251106023788,1.88634204865,0.33539390564,0.289759874344,2.22173595428,0.334620952606,0.288601160049,2.55635690689,0.383345127106,0.322527885437,2.939702034,0.334697961807,0.289958953857,3.2743999958,0.368208885193,0.322203874588,3.642608881,0.2997610569,0.254040002823,3.9423699379,,,,,,,,,,,,,,,,,,,,,,,f,1,0.435901165009,f,1,2.10840010643,,,,None,None,,,,,,,,,,,,,,,,,,,,1,4,4,60.00203139506772,Dissertation,2018_Jul_20_1135,3,
,,1,,,Verdadero,Falso,f,A,congruent_right,Cuando era niña Inés saltaba la cuerda mucho ,0,0,0,0,j,0,211,Inés sabe saltar la cuerda.,,,,,,,,,,,,,,,,,,,,,,,,,0,0,0,0,0,27,27,40,,,,,,,,,,,,,,,,,,0.685817956924,0.657635211945,0.685817956924,0.316764116287,0.269986867905,1.00258207321,0.285369873047,0.238662958145,1.28795194626,0.316454172134,0.270269870758,1.60440611839,0.318665027618,0.271426916122,1.92307114601,0.300374031067,0.255021095276,2.22344517708,0.30045580864,0.25416302681,2.52390098572,0.300424098969,0.253710031509,2.82432508469,,,,,,,,,,,,,,,,,,,,,,,,,,,,,,,,j,1,0.851011991501,f,1,1.85575318336,,,,None,None,,,,,,,,,,,,,,,,,,,,1,4,4,60.00203139506772,Dissertation,2018_Jul_20_1135,3,
,,0,,,Verdadero,Falso,f,A,single_right,The boy,0,0,0,1,j,0,302,a,,,,,,,,,,,,,,,,,,,,,,,,,0,0,0,0,0,28,28,61,,,,,,,,,,,,,,,,,,,,,,,,,,,,,,,,,,,,,,,,,,,,,,,,,,,,,,,,,,,,,,,,,,,,,,,,,j,1,0.537556886673,None,0,,,,,None,None,,,,,,,,,,,,,,,,,,,,1,4,4,60.00203139506772,Dissertation,2018_Jul_20_1135,3,
,,0,,,Verdadero,Falso,f,A,single_right,El cocinero lava las verduras en el fregadero,0,0,0,1,j,0,204,El cocinero prepara las verduras él mismo.,,,,,,,,,,,,,,,,,,,,,,,,,0,0,0,0,0,29,29,33,,,,,,,,,,,,,,,,,,0.786357879639,0.734282970428,0.786357879639,0.366769075394,0.320722818375,1.15312695503,0.368221998215,0.322056055069,1.52134895325,0.349858999252,0.30287694931,1.8712079525,0.318865060806,0.271587848663,2.19007301331,0.333724975586,0.288380861282,2.52379798889,0.333046913147,0.284836053848,2.85684490204,0.318864107132,0.271269083023,3.17570900917,,,,,,,,,,,,,,,,,,,,,,,,,,,,,,,,j,1,0.859354019165,f,1,2.79564905167,,,,None,None,,,,,,,,,,,,,,,,,,,,1,4,4,60.00203139506772,Dissertation,2018_Jul_20_1135,3,
,,0,,,Verdadero,Falso,j,A,incongruent_left,Cuando la artista gritó el cuadro cayó y se rompió,0,1,1,0,f,0,127,La artista no gritó muy fuerte.,,,,,,,,,,,,,,,,,,,,,,,,,0,0,0,0,0,30,30,23,,,,,,,,,,,,,,,,,,0.617901086807,0.585689067841,0.617901086807,0.335011959076,0.284276008606,0.952913045883,0.335000991821,0.289833784103,1.2879140377,0.332936048508,0.286765098572,1.62085008621,0.402097940445,0.355263948441,2.02294802666,0.38476896286,0.33847618103,2.40771698952,0.317472219467,0.2713971138,2.72518920898,0.433903932571,0.386025905609,3.15909314156,0.199348926544,0.149359941483,3.3584420681,0.653522014618,0.606659173965,4.01196408272,,,,,,,,,,,,,,,,,,,,,,,,,,f,1,0.689378023148,j,1,1.3033220768,,,,None,None,,,,,,,,,,,,,,,,,,,,1,4,4,60.00203139506772,Dissertation,2018_Jul_20_1135,3,
,,0,,,Verdadero,Falso,f,A,incongruent_right,Siempre que la niña salta la cuerda le da por la cabeza,1,1,1,0,j,1,4,La niña se golpea cuando juega.,,,,,,,,,,,,,,,,,,,,,,,,,0,0,0,0,0,31,31,3,,,,,,,,,,,,,,,,,,0.768603801727,0.738162994385,0.768603801727,0.467352151871,0.386642932892,1.2359559536,0.284821987152,0.237678050995,1.52077794075,0.266753911972,0.202521085739,1.78753185272,0.335168123245,0.270823001862,2.12269997597,0.334347009659,0.289030075073,2.45704698563,0.301025867462,0.254853963852,2.75807285309,0.333930015564,0.288746833801,3.09200286865,0.301655054092,0.255578041077,3.39365792274,0.317229032516,0.268879890442,3.71088695526,0.249337911606,0.203680038452,3.96022486687,0.300994157791,0.23773598671,4.26121902466,,,,,,,,,,,,,,,,,,,,j,1,0.673810005188,f,1,2.51253294945,,,,None,None,,,,,,,,,,,,,,,,,,,,1,4,4,60.00203139506772,Dissertation,2018_Jul_20_1135,3,
,,0,,,Verdadero,Falso,f,A,incongruent_left,Cuando la chica lava los platos se quedan bien sucios,1,1,1,0,f,1,9,La chica lava sin cuidado.,,,,,,,,,,,,,,,,,,,,,,,,,0,0,0,0,0,32,32,8,,,,,,,,,,,,,,,,,,0.634479999542,0.603875875473,0.634479999542,0.316372156143,0.253268957138,0.950852155685,0.302414894104,0.251686096191,1.25326704979,0.266874074936,0.221509933472,1.52014112473,0.300798892975,0.254492998123,1.8209400177,0.268005132675,0.221537828445,2.08894515038,0.300547838211,0.234807014465,2.38949298859,0.384704113007,0.323349952698,2.77419710159,0.350409030914,0.287845134735,3.12460613251,0.332912921906,0.286151170731,3.45751905441,,,,,,,,,,,,,,,,,,,,,,,,,,f,1,0.571492195129,f,1,1.27381896973,,,,None,None,,,,,,,,,,,,,,,,,,,,1,4,4,60.00203139506772,Dissertation,2018_Jul_20_1135,3,
,,0,,,Verdadero,Falso,f,A,incongruent_left,Las chicas pusieron la sopa que su mamá preparó en la mesa antes de comer,0,1,1,0,f,0,139,Van a comer sopa.,,,,,,,,,,,,,,,,,,,,,,,,,0,0,0,0,0,33,33,29,,,,,,,,,,,,,,,,,,0.717727899551,0.675992965698,0.717727899551,0.31739616394,0.252602100372,1.03512406349,0.266430854797,0.201709985733,1.30155491829,0.301143169403,0.237239837646,1.60269808769,0.284101963043,0.201930046082,1.88680005074,0.267282009125,0.188251972198,2.15408205986,0.282950878143,0.21924495697,2.437032938,0.2858979702,0.238368034363,2.7229309082,0.318197011948,0.256299972534,3.04112792015,0.266563177109,0.204184055328,3.30769109726,0.299904823303,0.235423088074,3.60759592056,0.268712997437,0.218810081482,3.876308918,0.251051187515,0.189387083054,4.12736010551,0.265205860138,0.185784816742,4.39256596565,,,,0.318813085556,0.25449514389,4.71137905121,,,,,,,,f,1,0.824877023697,f,1,1.19270706177,,,,None,None,,,,,,,,,,,,,,,,,,,,1,4,4,60.00203139506772,Dissertation,2018_Jul_20_1135,3,
,,1,,,Verdadero,Falso,j,A,congruent_left,Después de que limpiaron la casa brillaba por todas partes,1,1,0,0,f,0,2,Todavía tienen que limpiar la sala.,,,,,,,,,,,,,,,,,,,,,,,,,0,0,0,0,0,34,34,1,,,,,,,,,,,,,,,,,,0.532958030701,0.491722106934,0.532958030701,0.335362911224,0.239737033844,0.868320941925,0.300596952438,0.254975795746,1.16891789436,0.250137090683,0.204542160034,1.41905498505,0.251500844955,0.205069065094,1.67055583,0.317451000214,0.273203849792,1.98800683022,0.282539129257,0.236351013184,2.27054595947,0.300778865814,0.221029996872,2.57132482529,0.301115036011,0.25315117836,2.8724398613,0.284966945648,0.221611976624,3.15740680695,,,,,,,,,,,,,,,,,,,,,,,,,,f,1,0.622823953629,j,1,2.05852508545,,,,None,None,,,,,,,,,,,,,,,,,,,,1,4,4,60.00203139506772,Dissertation,2018_Jul_20_1135,3,
,,0,,,Verdadero,Falso,f,A,single_left,The boy,0,0,0,1,f,0,309,a,,,,,,,,,,,,,,,,,,,,,,,,,0,0,0,0,0,35,35,68,,,,,,,,,,,,,,,,,,,,,,,,,,,,,,,,,,,,,,,,,,,,,,,,,,,,,,,,,,,,,,,,,,,,,,,,,f,1,0.654778003693,None,0,,,,,None,None,,,,,,,,,,,,,,,,,,,,1,4,4,60.00203139506772,Dissertation,2018_Jul_20_1135,3,
,,0,,,Verdadero,Falso,f,A,incongruent_right,Elena colocó la tarea que la Sra. Sánchez le dejó encima de su mesa en su cuaderno sin mirar la nota,1,1,1,0,j,1,16,A Elena no le importó su nota.,,,,,,,,,,,,,,,,,,,,,,,,,0,0,0,0,0,36,36,15,,,,,,,,,,,,,,,,,,0.668169021606,0.617914915085,0.668169021606,0.316128015518,0.219489097595,0.984297037125,0.335900068283,0.269090890884,1.32019710541,0.299797058105,0.233460903168,1.61999416351,0.251179933548,0.172492980957,1.87117409706,0.234221935272,0.152750015259,2.10539603233,0.216266155243,0.138220071793,2.32166218758,0.266970872879,0.184251785278,2.58863306046,0.383934020996,0.303699970245,2.97256708145,0.334949016571,0.251803159714,3.30751609802,0.233618974686,0.168416023254,3.54113507271,0.285727024078,0.198262929916,3.82686209679,0.30020403862,0.240159034729,4.12706613541,0.26686501503,0.172153949738,4.39393115044,,,,0.267203807831,0.170923948288,4.66113495827,0.316875219345,0.203206062317,4.97801017761,,,,,j,1,0.65492105484,f,1,1.47521686554,,,,None,None,0.302060842514,0.188232898712,5.28007102013,0.267532110214,0.188204050064,5.54760313034,0.383271932602,0.302094936371,5.93087506294,0.285156011581,0.18533706665,6.21603107452,0.367968082428,0.284763097763,6.58399915695,,,,,1,4,4,60.00203139506772,Dissertation,2018_Jul_20_1135,3,
,,1,,,Verdadero,Falso,j,A,congruent_right,Mientras el padre leía la biblia antigua se partió en dos ,1,1,0,0,j,0,7,La biblia se quedó intacta.,,,,,,,,,,,,,,,,,,,,,,,,,0,0,0,0,0,37,37,6,,,,,,,,,,,,,,,,,,0.634762048721,0.595514059067,0.634762048721,0.367269992828,0.318484067917,1.00203204155,0.315965890884,0.270759105682,1.31799793243,0.250649213791,0.168885946274,1.56864714622,0.267319917679,0.201860904694,1.8359670639,0.284106016159,0.218419790268,2.12007308006,0.284255027771,0.236799955368,2.40432810783,0.335877895355,0.272367954254,2.74020600319,0.266319990158,0.221393823624,3.00652599335,0.285149097443,0.239353895187,3.29167509079,0.282773017883,0.221751928329,3.57444810867,,,,,,,,,,,,,,,,,,,,,,,j,1,0.788492918015,j,1,1.18685507774,,,,None,space,,,,,,,,,,,,,,,,355.689180136,,,,1,4,4,60.00203139506772,Dissertation,2018_Jul_20_1135,3,
,,1,,,Verdadero,Falso,j,A,congruent_left,La familia tenía una mesa antigua en el porche de su casa,0,0,0,0,f,0,201,La mesa antigua está en el comedor.,,,,,,,,,,,,,,,,,,,,,,,,,0,0,0,0,0,38,38,30,,,,,,,,,,,,,,,,,,0.66762804985,0.626004934311,0.66762804985,0.349975824356,0.286998987198,1.01760387421,0.284987211227,0.2403819561,1.30259108543,0.35102391243,0.284698009491,1.65361499786,0.300374031067,0.251757144928,1.95398902893,0.317618846893,0.27130484581,2.27160787582,0.334594011307,0.273733139038,2.60620188713,0.350481987,0.304513931274,2.95668387413,0.333774089813,0.271100997925,3.29045796394,0.367902040482,0.305732011795,3.65836000443,0.368095874786,0.319491147995,4.02645587921,0.333513021469,0.288712978363,4.35996890068,,,,,,,,,,,,,,,,,,,,f,1,0.489277124405,f,0,3.79425501823,,,,None,None,,,,,,,,,,,,,,,,,,,,1,4,4,60.00203139506772,Dissertation,2018_Jul_20_1135,3,
,,0,,,Verdadero,Falso,f,A,single_left,El mecánico estará de vacaciones solo unos días,0,0,0,1,f,0,230,El mecánico viaja solo.,,,,,,,,,,,,,,,,,,,,,,,,,0,0,0,0,0,39,39,59,,,,,,,,,,,,,,,,,,0.584735870361,0.543958902359,0.584735870361,0.315881967545,0.268785953522,0.900617837906,0.335915088654,0.284966945648,1.23653292656,0.266691923141,0.204621076584,1.5032248497,0.317137002945,0.271042108536,1.82036185265,0.318011045456,0.271396875381,2.1383728981,0.317461013794,0.270574808121,2.4558339119,0.300652980804,0.256884098053,2.7564868927,,,,,,,,,,,,,,,,,,,,,,,,,,,,,,,,f,1,0.42270898819,j,0,2.20837903023,,,,None,None,,,,,,,,,,,,,,,,,,,,1,4,4,60.00203139506772,Dissertation,2018_Jul_20_1135,3,
,,1,,,Verdadero,Falso,f,A,congruent_left,La computadora de Jessica falla con frecuencia,0,0,0,0,f,0,217,Jessica necesita consultar con un técnico.,,,,,,,,,,,,,,,,,,,,,,,,,0,0,0,0,0,40,40,46,,,,,,,,,,,,,,,,,,0.617285013199,0.582585811615,0.617285013199,0.351703166962,0.305135011673,0.968988180161,0.31756901741,0.268440008163,1.28655719757,0.349242925644,0.299889802933,1.63580012321,0.301728963852,0.254098892212,1.93752908707,0.334983110428,0.289515972137,2.27251219749,0.284093856812,0.221902132034,2.55660605431,,,,,,,,,,,,,,,,,,,,,,,,,,,,,,,,,,,f,1,0.556019067764,f,1,1.69158387184,,,,None,None,,,,,,,,,,,,,,,,,,,,1,4,4,60.00203139506772,Dissertation,2018_Jul_20_1135,3,
,,1,,,Verdadero,Falso,j,A,congruent_right,La señora insertó la tarjeta que su pareja le dejó en su cartera en la máquina para pagar,1,1,0,0,j,0,19,La mujer puso la tarjeta en su cartera.,,,,,,,,,,,,,,,,,,,,,,,,,0,0,0,0,0,41,41,18,,,,,,,,,,,,,,,,,,0.599972963333,0.545727014542,0.599972963333,0.318253993988,0.221155881882,0.918226957321,0.284582853317,0.217654943466,1.20280981064,0.265691041946,0.20231294632,1.46850085258,0.26851606369,0.205203056335,1.73701691628,0.250645875931,0.186891794205,1.98766279221,0.249946117401,0.186444044113,2.23760890961,0.234833955765,0.15482211113,2.47244286537,0.301123142242,0.235076904297,2.77356600761,0.250958919525,0.188264846802,3.02452492714,0.283372879028,0.220355987549,3.30789780617,0.300508022308,0.223321914673,3.60840582848,0.267089128494,0.1676030159,3.87549495697,0.250267028809,0.169544935226,4.12576198578,,,,0.250831842422,0.185626983643,4.3765938282,0.267043113708,0.202651977539,4.64363694191,,,,,j,1,0.488291025162,j,1,2.91205096245,,,,None,None,0.234338998795,0.152560949326,4.8779759407,0.284556865692,0.219706058502,5.1625328064,,,,,,,,,,,,,,1,4,4,60.00203139506772,Dissertation,2018_Jul_20_1135,3,
,,1,,,Verdadero,Falso,f,A,congruent_left,Jimena duerme bien en la cama en su cuarto,0,0,0,0,f,0,205,La cama de Jimena es cómoda.,,,,,,,,,,,,,,,,,,,,,,,,,0,0,0,0,0,42,42,34,,,,,,,,,,,,,,,,,,0.717039108276,0.690072059631,0.717039108276,0.334076881409,0.283502817154,1.05111598969,0.267498016357,0.218400001526,1.31861400604,0.318154096603,0.271682977676,1.63676810265,0.300741910934,0.254841804504,1.93751001358,0.267785072327,0.221467971802,2.20529508591,0.266681909561,0.221848011017,2.47197699547,0.266324043274,0.203851938248,2.73830103874,0.284139871597,0.220892906189,3.02244091034,,,,,,,,,,,,,,,,,,,,,,,,,,,,,f,1,0.472946166992,f,1,1.32590794563,,,,None,None,,,,,,,,,,,,,,,,,,,,1,4,4,60.00203139506772,Dissertation,2018_Jul_20_1135,3,
,,0,,,Verdadero,Falso,f,A,incongruent_left,Antes de que bebieran el vino se volvió vinagre ,1,1,1,0,f,1,5,No tomaron vino porque se había echado a perder.,,,,,,,,,,,,,,,,,,,,,,,,,0,0,0,0,0,43,43,4,,,,,,,,,,,,,,,,,,0.583119153976,0.544548988342,0.583119153976,0.284810066223,0.237468004227,0.8679292202,0.284926891327,0.239129066467,1.15285611153,0.283315896988,0.233793973923,1.43617200851,0.267788171768,0.221526861191,1.70396018028,0.267627000809,0.221812009811,1.97158718109,0.299780845642,0.256825208664,2.27136802673,0.300232172012,0.219040870667,2.57160019875,0.318919897079,0.268327951431,2.89052009583,,,,,,,,,,,,,,,,,,,,,,,,,,,,,f,1,0.619137048721,f,1,2.34505391121,,,,None,None,,,,,,,,,,,,,,,,,,,,1,4,4,60.00203139506772,Dissertation,2018_Jul_20_1135,3,
,,1,,,Verdadero,Falso,j,A,congruent_right,Paco dejó los pantalones que compró en la tienda en su cuarto cuando volvió,1,1,0,0,j,0,11,A Paco los pantalones se le quedaron en la tienda.,,,,,,,,,,,,,,,,,,,,,,,,,0,0,0,0,0,44,44,10,,,,,,,,,,,,,,,,,,0.536008119583,0.492329120636,0.536008119583,0.317662000656,0.254317998886,0.853670120239,0.284311056137,0.222097873688,1.13798117638,0.266928911209,0.20401096344,1.40491008759,0.283470869064,0.217095851898,1.68838095665,0.251907110214,0.189395904541,1.94028806686,0.267116069794,0.205668926239,2.20740413666,0.267460823059,0.18861413002,2.47486495972,0.282572031021,0.217027902603,2.75743699074,0.266820192337,0.201411008835,3.02425718307,0.285462856293,0.220358848572,3.30972003937,0.251523971558,0.184337854385,3.56124401093,0.266874074936,0.204694032669,3.82811808586,0.283915042877,0.220805883408,4.11203312874,,,,,,,,,,,,,,j,1,0.570258140564,f,0,2.79498696327,,,,None,None,,,,,,,,,,,,,,,,,,,,1,4,4,60.00203139506772,Dissertation,2018_Jul_20_1135,3,
,,0,,,Verdadero,Falso,f,A,incongruent_left,El mesero vació el vino que los clientes dejaron en la mesa en el fregadero después de que se fueron,1,1,1,0,f,1,17,Los clientes se fueron sin tomar todo el vino. ,,,,,,,,,,,,,,,,,,,,,,,,,0,0,0,0,0,45,45,16,,,,,,,,,,,,,,,,,,0.567791938782,0.516074895859,0.567791938782,0.317862033844,0.2356569767,0.885653972626,0.283925056458,0.202985048294,1.16957902908,0.266592025757,0.186743974686,1.43617105484,0.283290863037,0.202320098877,1.71946191788,0.267702102661,0.202446937561,1.98716402054,0.268269062042,0.203706026077,2.25543308258,0.250669002533,0.170303106308,2.50610208511,0.300985813141,0.238018989563,2.80708789825,0.26771903038,0.188126087189,3.07480692863,0.29966211319,0.221082210541,3.37446904182,0.233934879303,0.122414112091,3.60840392113,0.268038988113,0.187777996063,3.87644290924,0.251275062561,0.172814130783,4.1277179718,,,,0.267066955566,0.185634851456,4.39478492737,0.250591993332,0.169279098511,4.6453769207,,,,,f,1,0.620486021042,f,1,1.96017599106,,,,None,None,0.283439159393,0.205466032028,4.92881608009,0.267468929291,0.186497211456,5.19628500938,0.266544103622,0.182152032852,5.46282911301,0.285135984421,0.22074508667,5.74796509743,,,,,,,,1,4,4,60.00203139506772,Dissertation,2018_Jul_20_1135,3,
,,0,,,Verdadero,Falso,j,A,incongruent_right,Los artistas van a donar tres estatuas a la ciudad,0,0,1,0,j,0,203,La ciudad va a comprar las estatuas.,,,,,,,,,,,,,,,,,,,,,,,,,0,0,0,0,0,46,46,32,,,,,,,,,,,,,,,,,,0.517378091812,0.481066942215,0.517378091812,0.267365932465,0.222994089127,0.784744024277,0.266932010651,0.206388950348,1.05167603493,0.250555038452,0.186650037766,1.30223107338,0.234084844589,0.188458919525,1.53631591797,0.23436498642,0.189455032349,1.77068090439,0.236606121063,0.174875974655,2.00728702545,0.21493601799,0.156856060028,2.22222304344,0.250105857849,0.204596996307,2.47232890129,0.232782125473,0.185451030731,2.70511102676,,,,,,,,,,,,,,,,,,,,,,,,,,j,1,0.620218038559,j,1,1.8577041626,,,,None,None,,,,,,,,,,,,,,,,,,,,1,4,4,60.00203139506772,Dissertation,2018_Jul_20_1135,3,
,,0,,,Verdadero,Falso,j,A,single_right,Cuando usó mi carro Jorge lo aparcó muy mal,0,0,0,1,j,0,212,No le presto mi carro a nadie.,,,,,,,,,,,,,,,,,,,,,,,,,0,0,0,0,0,47,47,41,,,,,,,,,,,,,,,,,,0.952766895294,0.90163898468,0.952766895294,0.334685087204,0.289355039597,1.2874519825,0.250592947006,0.205446004868,1.5380449295,0.250934123993,0.205295801163,1.7889790535,0.249419927597,0.203132152557,2.03839898109,0.267678976059,0.220371961594,2.30607795715,0.251118898392,0.205816984177,2.55719685555,0.217112064362,0.17022895813,2.77430891991,0.249598026276,0.201292037964,3.02390694618,,,,,,,,,,,,,,,,,,,,,,,,,,,,,j,1,0.45319890976,j,1,3.21353793144,,,,None,None,,,,,,,,,,,,,,,,,,,,1,4,4,60.00203139506772,Dissertation,2018_Jul_20_1135,3,
,,0,,,Verdadero,Falso,f,A,single_left,The boy,0,0,0,1,f,0,301,a,,,,,,,,,,,,,,,,,,,,,,,,,0,0,0,0,0,48,48,60,,,,,,,,,,,,,,,,,,,,,,,,,,,,,,,,,,,,,,,,,,,,,,,,,,,,,,,,,,,,,,,,,,,,,,,,,f,1,0.489920139313,None,0,,,,,None,None,,,,,,,,,,,,,,,,,,,,1,4,4,60.00203139506772,Dissertation,2018_Jul_20_1135,3,
,,0,,,Verdadero,Falso,f,A,single_left,Mi padre me partió el sándwich en dos para llevarlo a clase,0,0,0,1,f,0,222,Me compré la comida en la escuela. ,,,,,,,,,,,,,,,,,,,,,,,,,0,0,0,0,0,49,49,51,,,,,,,,,,,,,,,,,,0.583431005478,0.546068906784,0.583431005478,0.33509516716,0.268760204315,0.918526172638,0.233345031738,0.172569036484,1.15187120438,0.268182992935,0.222744941711,1.42005419731,0.266872882843,0.20227098465,1.68692708015,0.234341144562,0.171517133713,1.92126822472,0.282855987549,0.200493812561,2.20412421227,0.266996860504,0.219147920609,2.47112107277,0.302190065384,0.254860877991,2.77331113815,0.250748872757,0.206143856049,3.02406001091,0.233529090881,0.187234163284,3.25758910179,0.250548124313,0.20406794548,3.5081372261,,,,,,,,,,,,,,,,,,,,f,1,0.4869389534,j,0,2.24341917038,,,,None,None,,,,,,,,,,,,,,,,,,,,1,4,4,60.00203139506772,Dissertation,2018_Jul_20_1135,3,
,,1,,,Verdadero,Falso,j,A,congruent_left,Antes de que cantaran esa canción no era muy conocida ,1,1,0,0,f,0,6,Todos ya se sabían la canción antes de la fiesta.,,,,,,,,,,,,,,,,,,,,,,,,,0,0,0,0,0,50,50,5,,,,,,,,,,,,,,,,,,0.500274896622,0.468271017075,0.500274896622,0.283795118332,0.23769903183,0.784070014954,0.267496824265,0.221173048019,1.05156683922,0.249905109406,0.205008029938,1.30147194862,0.268753051758,0.206304073334,1.57022500038,0.266749858856,0.22126698494,1.83697485924,0.250570058823,0.201293945312,2.08754491806,0.250716924667,0.204069137573,2.33826184273,0.267336130142,0.220767021179,2.60559797287,0.316220998764,0.267480134964,2.92181897163,,,,,,,,,,,,,,,,,,,,,,,,,,f,1,0.605904102325,j,1,2.159897089,,,,None,None,,,,,,,,,,,,,,,,,,,,1,4,4,60.00203139506772,Dissertation,2018_Jul_20_1135,3,
,,0,,,Verdadero,Falso,j,A,incongruent_left,La pantalla de mi computadora se me rompió,0,0,1,0,f,0,221,Mi computadora está en una condición perfecta.,,,,,,,,,,,,,,,,,,,,,,,,,0,0,0,0,0,51,51,50,,,,,,,,,,,,,,,,,,1.10110282898,1.07456707954,1.10110282898,0.283692121506,0.219326972961,1.38479495049,0.284736871719,0.235435962677,1.6695318222,0.285148143768,0.238466024399,1.95467996597,0.250698804855,0.204525947571,2.20537877083,0.283662080765,0.23893404007,2.48904085159,0.2340259552,0.188586950302,2.72306680679,0.267321109772,0.221390962601,2.99038791656,,,,,,,,,,,,,,,,,,,,,,,,,,,,,,,,f,1,0.590498924255,j,1,1.79391312599,,,,None,None,,,,,,,,,,,,,,,,,,,,1,4,4,60.00203139506772,Dissertation,2018_Jul_20_1135,3,
,,0,,,Verdadero,Falso,j,A,single_left,Los estudiantes hicieron el trabajo en equipo en la biblioteca,0,0,0,1,f,0,202,Los estudiantes hicieron la tarea en el café.,,,,,,,,,,,,,,,,,,,,,,,,,0,0,0,0,0,52,52,31,,,,,,,,,,,,,,,,,,0.569139957428,0.536828041077,0.569139957428,0.267564058304,0.220710039139,0.836704015732,0.251004934311,0.206510066986,1.08770895004,0.233921051025,0.184073925018,1.32163000107,0.217119932175,0.17169713974,1.53874993324,0.26727104187,0.221220016479,1.80602097511,0.234034061432,0.187932014465,2.04005503654,0.250022888184,0.20016503334,2.29007792473,0.216647148132,0.168598890305,2.50672507286,0.250860929489,0.201661109924,2.75758600235,,,,,,,,,,,,,,,,,,,,,,,,,,f,1,0.652932167053,j,1,2.2604238987,,,,None,None,,,,,,,,,,,,,,,,,,,,1,4,4,60.00203139506772,Dissertation,2018_Jul_20_1135,3,
,,1,,,Verdadero,Falso,j,A,congruent_right,El pastel en el refrigerador es para el cumpleaños de Tomás,0,0,0,0,j,0,207,Tomás no cumple años pronto.,,,,,,,,,,,,,,,,,,,,,,,,,0,0,0,0,0,53,53,36,,,,,,,,,,,,,,,,,,0.500607013702,0.463809967041,0.500607013702,0.284117937088,0.236711025238,0.78472495079,0.250560998917,0.202629089355,1.03528594971,0.251079082489,0.200767040253,1.2863650322,0.241555929184,0.195394039154,1.52792096138,0.259273052216,0.203426837921,1.7871940136,0.234091997147,0.170575141907,2.02128601074,0.284368038177,0.234723806381,2.30565404892,0.23330283165,0.185918092728,2.53895688057,0.25065612793,0.201981067657,2.7896130085,0.26815199852,0.20368719101,3.05776500702,,,,,,,,,,,,,,,,,,,,,,,j,1,0.621128082275,j,1,1.62144899368,,,,None,None,,,,,,,,,,,,,,,,,,,,1,4,4,60.00203139506772,Dissertation,2018_Jul_20_1135,3,
,,0,,,Verdadero,Falso,f,A,incongruent_right,Los pintores colocaron el cuadro que su colega dejó en la oficina privada antes de su exhibición,0,1,1,0,j,0,138,Los pintores solo querían sus propias obras en la exhbición.,,,,,,,,,,,,,,,,,,,,,,,,,0,0,0,0,0,54,54,28,,,,,,,,,,,,,,,,,,0.650850057602,0.585399866104,0.650850057602,0.267826080322,0.169672966003,0.918676137924,0.234282970428,0.137804031372,1.15295910835,0.216191053391,0.119163036346,1.36915016174,0.234803915024,0.153656005859,1.60395407677,0.200469017029,0.119672060013,1.8044230938,0.266605854034,0.202697038651,2.07102894783,0.267852067947,0.186172962189,2.33888101578,0.23396396637,0.169647932053,2.57284498215,0.200901031494,0.11949801445,2.77374601364,0.233333110809,0.169362068176,3.00707912445,0.234398841858,0.169767856598,3.24147796631,0.200098991394,0.136734008789,3.4415769577,0.234512090683,0.153982877731,3.67608904839,,,,0.233490943909,0.135447025299,3.90957999229,0.250658988953,0.150609016418,4.16023898125,,,,,j,1,0.705320835114,j,0,3.31252717972,,,,None,None,0.217378139496,0.102485895157,4.37761712074,,,,,,,,,,,,,,,,,1,4,4,60.00203139506772,Dissertation,2018_Jul_20_1135,3,
,,0,,,Verdadero,Falso,f,A,single_right,The boy,0,0,0,1,j,0,306,a,,,,,,,,,,,,,,,,,,,,,,,,,0,0,0,0,0,55,55,65,,,,,,,,,,,,,,,,,,,,,,,,,,,,,,,,,,,,,,,,,,,,,,,,,,,,,,,,,,,,,,,,,,,,,,,,,j,1,0.72136592865,None,0,,,,,None,None,,,,,,,,,,,,,,,,,,,,1,4,4,60.00203139506772,Dissertation,2018_Jul_20_1135,3,
,,0,,,Verdadero,Falso,f,A,incongruent_right,El mecánico arregló el carro rápido,0,0,1,0,j,0,227,El mécanico trabaja de una manera eficiente.,,,,,,,,,,,,,,,,,,,,,,,,,0,0,0,0,0,56,56,56,,,,,,,,,,,,,,,,,,0.651504993439,0.61949801445,0.651504993439,0.300537109375,0.253363847733,0.952042102814,0.250865936279,0.220460891724,1.20290803909,0.23522400856,0.206475973129,1.43813204765,0.216024160385,0.169853925705,1.65415620804,0.200024843216,0.169107913971,1.85418105125,,,,,,,,,,,,,,,,,,,,,,,,,,,,,,,,,,,,,,j,1,0.570852994919,f,1,1.57688188553,,,,None,None,,,,,,,,,,,,,,,,,,,,1,4,4,60.00203139506772,Dissertation,2018_Jul_20_1135,3,
,,0,,,Verdadero,Falso,f,A,incongruent_right,Los trabajadores colocaron los avisos que su jefe les dejó en la carpeta en la puerta de la oficina,1,1,1,0,j,1,20,Los avisos están colgados en la puerta.,,,,,,,,,,,,,,,,,,,,,,,,,0,0,0,0,0,57,57,19,,,,,,,,,,,,,,,,,,0.567466974258,0.500230073929,0.567466974258,0.267539978027,0.203685998917,0.835006952286,0.234102010727,0.171175956726,1.06910896301,0.216475963593,0.133782148361,1.28558492661,0.184239149094,0.121468067169,1.4698240757,0.217747926712,0.137726068497,1.68757200241,0.249778985977,0.18675994873,1.93735098839,0.218578100204,0.138937950134,2.15592908859,0.216979026794,0.137915849686,2.37290811539,0.266759872437,0.204640865326,2.63966798782,0.218225002289,0.133908033371,2.85789299011,0.267011165619,0.200968027115,3.12490415573,0.250988960266,0.185313224792,3.375893116,0.20060300827,0.138571023941,3.57649612427,,,,0.233767032623,0.15459394455,3.81026315689,0.232816934586,0.16885304451,4.04308009148,,,,,j,1,0.656718969345,f,1,2.75804305077,,,,None,None,0.233057975769,0.167901992798,4.27613806725,0.218311071396,0.154392004013,4.49444913864,0.217958927155,0.137420892715,4.7124080658,,,,,,,,,,,1,4,4,60.00203139506772,Dissertation,2018_Jul_20_1135,3,
,,1,,,Verdadero,Falso,f,A,congruent_left,The boy,0,0,0,0,f,0,311,a,,,,,,,,,,,,,,,,,,,,,,,,,0,0,0,0,0,58,58,70,,,,,,,,,,,,,,,,,,,,,,,,,,,,,,,,,,,,,,,,,,,,,,,,,,,,,,,,,,,,,,,,,,,,,,,,,f,1,0.504946947098,None,0,,,,,None,None,,,,,,,,,,,,,,,,,,,,1,4,4,60.00203139506772,Dissertation,2018_Jul_20_1135,3,
,,0,,,Verdadero,Falso,f,A,single_left,Antes de correr su primer maratón María tuvo que correr mucho para practicar,0,0,0,1,f,0,210,María corrió el maratón sin entrenarse.,,,,,,,,,,,,,,,,,,,,,,,,,0,0,0,0,0,59,59,39,,,,,,,,,,,,,,,,,,0.63484287262,0.581558942795,0.63484287262,0.299033164978,0.218737840652,0.933876037598,0.218933820724,0.151798963547,1.15280985832,0.26683306694,0.188549995422,1.41964292526,0.250431060791,0.187472105026,1.67007398605,0.250379085541,0.186622858047,1.92045307159,0.266910791397,0.201947927475,2.18736386299,0.235057115555,0.171342134476,2.42242097855,0.29952287674,0.23436999321,2.72194385529,0.335370063782,0.287020921707,3.05731391907,0.267149925232,0.203844070435,3.3244638443,0.284866094589,0.221657991409,3.60932993889,0.267132997513,0.205321073532,3.8764629364,,,,,,,,,,,,,,,,,f,1,0.421890974045,j,0,1.60717010498,,,,None,None,,,,,,,,,,,,,,,,,,,,1,4,4,60.00203139506772,Dissertation,2018_Jul_20_1135,3,
,,0,,,Verdadero,Falso,f,A,incongruent_right,Ignacio puso el queso que sus sobrinos dejaron en el refrigerador después de que comieron,0,1,1,0,j,0,134,Ignacio limpió cuando todos acabaron.,,,,,,,,,,,,,,,,,,,,,,,,,0,0,0,0,0,60,60,26,,,,,,,,,,,,,,,,,,0.851679086685,0.801509857178,0.851679086685,0.351279973984,0.268145084381,1.20295906067,0.301049947739,0.235283851624,1.50400900841,0.317070007324,0.255661010742,1.82107901573,0.316647052765,0.237971067429,2.1377260685,0.318439006805,0.251445055008,2.4561650753,0.33406996727,0.27153301239,2.79023504257,0.334105968475,0.256402015686,3.12434101105,0.334141969681,0.253934860229,3.45848298073,0.468100070953,0.404935836792,3.92658305168,0.334187030792,0.271325826645,4.26077008247,0.350385904312,0.286249876022,4.61115598679,0.368426084518,0.288331985474,4.9795820713,0.367208957672,0.287015914917,5.34679102898,,,,0.33488702774,0.255877017975,5.68167805672,,,,,,,,j,1,0.553964138031,f,1,3.36433196068,,,,None,None,,,,,,,,,,,,,,,,,,,,1,4,4,60.00203139506772,Dissertation,2018_Jul_20_1135,3,
,,0,,,Verdadero,Falso,j,A,single_right,Cuando Dora ganó la lotería se compró un reloj de diamantes,0,0,0,1,j,0,216,Dora ahorró todo el dinero que ganó. ,,,,,,,,,,,,,,,,,,,,,,,,,0,0,0,0,0,61,61,45,,,,,,,,,,,,,,,,,,0.468011140823,0.43109703064,0.468011140823,0.299442052841,0.234529018402,0.767453193665,0.234956026077,0.169732093811,1.00240921974,0.266801834106,0.202931880951,1.26921105385,0.2669069767,0.201205015182,1.53611803055,0.250758171082,0.201131105423,1.78687620163,0.302242994308,0.254228115082,2.08911919594,0.283718824387,0.237572908401,2.37283802032,0.300840139389,0.254384040833,2.67367815971,0.234441041946,0.171846866608,2.90811920166,0.300696849823,0.251199960709,3.20881605148,,,,,,,,,,,,,,,,,,,,,,,j,1,0.572995901108,j,1,2.25870108604,,,,None,None,,,,,,,,,,,,,,,,,,,,1,4,4,60.00203139506772,Dissertation,2018_Jul_20_1135,3,
,,1,,,Verdadero,Falso,j,A,congruent_right,Siempre que mi hermana maneja el carro suena raro ,1,1,0,0,j,0,3,El carro está en una condición perfecta.,,,,,,,,,,,,,,,,,,,,,,,,,0,0,0,0,0,62,62,2,,,,,,,,,,,,,,,,,,0.635745048523,0.600983858109,0.635745048523,0.30078291893,0.256318807602,0.936527967453,0.216719865799,0.171653032303,1.15324783325,0.234652996063,0.184748888016,1.38790082932,0.266656160355,0.217489004135,1.65455698967,0.251313924789,0.202070951462,1.90587091446,0.2669069767,0.22144818306,2.17277789116,0.284024953842,0.239170074463,2.456802845,0.299499034882,0.253891944885,2.75630187988,,,,,,,,,,,,,,,,,,,,,,,,,,,,,j,1,0.637944221497,j,1,1.69020199776,,,,None,None,,,,,,,,,,,,,,,,,,,,1,4,4,60.00203139506772,Dissertation,2018_Jul_20_1135,3,
,,0,,,Verdadero,Falso,f,A,single_right,Me reí cuando mi amiga me contó la historia de su encuentro con su ex.,0,0,0,1,j,0,220,La historia de mi amiga me dio gracia.,,,,,,,,,,,,,,,,,,,,,,,,,0,0,0,0,0,63,63,49,,,,,,,,,,,,,,,,,,0.65069103241,0.601557970047,0.65069103241,0.28430390358,0.21723985672,0.934994935989,0.21784901619,0.1516289711,1.15284395218,0.249711990356,0.186944961548,1.40255594254,0.2179210186,0.154195070267,1.62047696114,0.234045028687,0.171370029449,1.85452198982,0.233345031738,0.171075820923,2.08786702156,0.250926971436,0.188127040863,2.338793993,0.249886989594,0.1866979599,2.58868098259,0.251032114029,0.186940193176,2.83971309662,0.268031835556,0.204605102539,3.10774493217,0.267760038376,0.20577788353,3.37550497055,0.267230033875,0.205636024475,3.64273500443,0.233870029449,0.168554067612,3.87660503387,,,,0.266721963882,0.203990936279,4.14332699776,,,,,,,,j,1,0.857179880142,f,1,3.64565300941,,,,None,None,,,,,,,,,,,,,,,,,,,,1,4,4,60.00203139506772,Dissertation,2018_Jul_20_1135,3,
,,0,,,Verdadero,Falso,f,A,incongruent_right,Mientras el novio salía el diamante se le cayó al piso,0,1,1,0,j,0,126,El novio no tenía cuidado con el diamante.,,,,,,,,,,,,,,,,,,,,,,,,,0,0,0,0,0,64,64,22,,,,,,,,,,,,,,,,,,0.566926002502,0.52524805069,0.566926002502,0.300877094269,0.254907846451,0.867803096771,0.217535972595,0.17070889473,1.08533906937,0.284219026566,0.23779296875,1.36955809593,0.217119932175,0.171285867691,1.58667802811,0.30114197731,0.255212068558,1.88782000542,0.250360965729,0.187782049179,2.13818097115,0.25048995018,0.204519987106,2.38867092133,0.250456094742,0.204452037811,2.63912701607,0.250684976578,0.204926013947,2.88981199265,0.318315029144,0.271234035492,3.20812702179,,,,,,,,,,,,,,,,,,,,,,,j,1,0.619292020798,f,1,2.96187400818,,,,None,None,,,,,,,,,,,,,,,,,,,,1,4,4,60.00203139506772,Dissertation,2018_Jul_20_1135,3,
,,0,,,Verdadero,Falso,j,A,incongruent_right,Jorge puso las monedas que traía en su abrigo en la mesa cuando regresó a su casa,1,1,1,0,j,1,12,Las monedas de Jorge están en su abrigo.,,,,,,,,,,,,,,,,,,,,,,,,,0,0,0,0,0,65,65,11,,,,,,,,,,,,,,,,,,0.517416000366,0.451080083847,0.517416000366,0.251029014587,0.188832998276,0.768445014954,0.217097997665,0.137848138809,0.985543012619,0.233850002289,0.151492118835,1.21939301491,0.251580953598,0.1887819767,1.47097396851,0.300242900848,0.239619970322,1.77121686935,0.283945083618,0.222034215927,2.05516195297,0.250622034073,0.188680171967,2.30578398705,0.300788879395,0.239229917526,2.60657286644,0.282858133316,0.218442201614,2.88943099976,0.285789012909,0.217488050461,3.17522001266,0.282516002655,0.219652891159,3.45773601532,0.267911911011,0.203739881516,3.72564792633,0.251471996307,0.187993049622,3.97711992264,,,,0.267287015915,0.205296993256,4.24440693855,0.26779794693,0.205245018005,4.51220488548,,,,,j,1,0.605084180832,f,0,1.67409515381,,,,None,None,0.283658981323,0.205128908157,4.79586386681,,,,,,,,,,,,,,,,,1,4,4,60.00203139506772,Dissertation,2018_Jul_20_1135,3,
,,0,,,Verdadero,Falso,j,A,incongruent_left,El arquitecto puso los documentos que sus compañeros le dejaron encima de la mesa para verlos bien,0,1,1,0,f,0,135,El arquitecto no revisó los documentos.,,,,,,,,,,,,,,,,,,,,,,,,,0,0,0,0,0,66,66,27,,,,,,,,,,,,,,,,,,0.866925954819,0.802891969681,0.866925954819,0.284291982651,0.202655792236,1.15121793747,0.308145046234,0.245120048523,1.4593629837,0.244585990906,0.155080080032,1.70394897461,0.350361824036,0.271614074707,2.05431079865,0.300142049789,0.221356153488,2.35445284843,0.284494161606,0.185925960541,2.63894701004,0.350756883621,0.287492036819,2.98970389366,0.284198999405,0.203882932663,3.27390289307,0.317183017731,0.237360954285,3.5910859108,0.435261011124,0.338677167892,4.02634692192,0.284123897552,0.221511125565,4.31047081947,0.300686120987,0.238960027695,4.61115694046,0.283583879471,0.204516887665,4.89474081993,,,,0.301352977753,0.221517086029,5.19609379768,0.283970117569,0.221453905106,5.48006391525,,,,,f,1,0.808567047119,j,1,1.38927698135,,,,None,None,0.400997877121,0.338861942291,5.88106179237,,,,,,,,,,,,,,,,,1,4,4,60.00203139506772,Dissertation,2018_Jul_20_1135,3,
,,0,,,Verdadero,Falso,j,A,incongruent_right,Después de lavar la ropa Antonio prepara la cena,0,0,1,0,j,0,215,Antonio hace varios deberes por la noche.,,,,,,,,,,,,,,,,,,,,,,,,,0,0,0,0,0,67,67,44,,,,,,,,,,,,,,,,,,0.632714033127,0.600515127182,0.632714033127,0.28412103653,0.23553609848,0.916835069656,0.285261869431,0.237611055374,1.20209693909,0.299793958664,0.25403380394,1.50189089775,0.283900022507,0.236475944519,1.78579092026,0.302385091782,0.238805055618,2.08817601204,0.315582036972,0.269676923752,2.40375804901,0.302770853043,0.25487613678,2.70652890205,0.316733121872,0.267807006836,3.02326202393,,,,,,,,,,,,,,,,,,,,,,,,,,,,,j,1,0.590849161148,f,0,2.28951478004,,,,None,None,,,,,,,,,,,,,,,,,,,,1,4,4,60.00203139506772,Dissertation,2018_Jul_20_1135,3,
,,1,,,Verdadero,Falso,f,A,congruent_right,The boy,0,0,0,0,j,0,312,a,,,,,,,,,,,,,,,,,,,,,,,,,0,0,0,0,0,68,68,71,,,,,,,,,,,,,,,,,,,,,,,,,,,,,,,,,,,,,,,,,,,,,,,,,,,,,,,,,,,,,,,,,,,,,,,,,j,1,0.622830152512,None,0,,,,,None,None,,,,,,,,,,,,,,,,,,,,1,4,4,60.00203139506772,Dissertation,2018_Jul_20_1135,3,
,,0,,,Verdadero,Falso,j,A,single_left,La participante brilló cuando ganó el maratón,0,0,0,1,f,0,218,La participante se quedó triste después del maratón.,,,,,,,,,,,,,,,,,,,,,,,,,0,0,0,0,0,69,69,47,,,,,,,,,,,,,,,,,,0.602631092072,0.564275026321,0.602631092072,0.283725976944,0.237835884094,0.886357069016,0.234349012375,0.189747095108,1.12070608139,0.265846014023,0.219058036804,1.38655209541,0.268389940262,0.221281051636,1.65494203568,0.2668800354,0.223701000214,1.92182207108,0.251754045486,0.20276594162,2.17357611656,,,,,,,,,,,,,,,,,,,,,,,,,,,,,,,,,,,f,1,0.487876176834,j,1,1.78893494606,,,,None,None,,,,,,,,,,,,,,,,,,,,1,4,4,60.00203139506772,Dissertation,2018_Jul_20_1135,3,
,,0,,,Verdadero,Falso,f,A,single_right,The boy,0,0,0,1,j,0,310,a,,,,,,,,,,,,,,,,,,,,,,,,,0,0,0,0,0,70,70,69,,,,,,,,,,,,,,,,,,,,,,,,,,,,,,,,,,,,,,,,,,,,,,,,,,,,,,,,,,,,,,,,,,,,,,,,,j,1,0.459086894989,None,0,,,,,None,None,,,,,,,,,,,,,,,,,,,,1,4,4,60.00203139506772,Dissertation,2018_Jul_20_1135,3,
,,0,,,Verdadero,Falso,j,A,single_right,Las flores en mi apartamento hacen que la sala brille,0,0,0,1,j,0,224,No tengo plantas en mi apartamento por mis alergias.,,,,,,,,,,,,,,,,,,,,,,,,,0,0,0,0,0,71,71,53,,,,,,,,,,,,,,,,,,0.468055009842,0.418663978577,0.468055009842,0.500802993774,0.418208837509,0.968858003616,0.267503023148,0.220363855362,1.23636102676,0.267436027527,0.218198060989,1.50379705429,0.284605026245,0.21887087822,1.78840208054,0.267302036285,0.220194101334,2.05570411682,0.28462600708,0.219592809677,2.3403301239,0.349973917007,0.283792972565,2.69030404091,0.251805067062,0.205064058304,2.94210910797,0.318094968796,0.271922826767,3.26020407677,,,,,,,,,,,,,,,,,,,,,,,,,,j,1,0.571047067642,j,1,2.41114401817,,,,None,None,,,,,,,,,,,,,,,,,,,,1,4,4,60.00203139506772,Dissertation,2018_Jul_20_1135,3,
,,1,,,Verdadero,Falso,f,A,congruent_right,Mi hija pintó el cuadro que está en la pared de mi oficina,0,0,0,0,j,0,219,Tengo arte colgado en mi oficina.,,,,,,,,,,,,,,,,,,,,,,,,,0,0,0,0,0,72,72,48,,,,,,,,,,,,,,,,,,0.584733963013,0.550008773804,0.584733963013,0.400650024414,0.338768005371,0.985383987427,0.283419847488,0.233340978622,1.26880383492,0.251005172729,0.188792943954,1.51980900764,0.267920970917,0.221530914307,1.78772997856,0.451531887054,0.405636787415,2.23926186562,0.266901016235,0.221102952957,2.50616288185,0.334769964218,0.288784980774,2.84093284607,0.29891705513,0.252524852753,3.1398499012,0.300899982452,0.219575881958,3.44074988365,0.302678108215,0.255025148392,3.74342799187,0.28348493576,0.238114833832,4.02691292763,0.2678129673,0.221442937851,4.29472589493,,,,,,,,,,,,,,,,,j,1,0.606023788452,f,1,4.6841108799,,,,None,None,,,,,,,,,,,,,,,,,,,,1,4,4,60.00203139506772,Dissertation,2018_Jul_20_1135,3,
,,0,,,Verdadero,Falso,j,A,incongruent_left,Mis amigas se reunieron en la escuela para ir a jugar fútbol,0,0,1,0,f,0,209,Jugaron béisbol mis amigas.  ,,,,,,,,,,,,,,,,,,,,,,,,,0,0,0,0,0,73,73,38,,,,,,,,,,,,,,,,,,0.650878190994,0.610975980759,0.650878190994,0.266565799713,0.21914100647,0.917443990707,0.267132043839,0.221942901611,1.18457603455,0.285587072372,0.218409061432,1.47016310692,0.267215013504,0.221121072769,1.73737812042,0.267416954041,0.219352006912,2.00479507446,0.249809026718,0.18522310257,2.25460410118,0.251103878021,0.205966949463,2.5057079792,0.267849206924,0.205811023712,2.77355718613,0.282343864441,0.21764087677,3.05590105057,0.267519950867,0.218811988831,3.32342100143,0.285614013672,0.23824596405,3.60903501511,,,,,,,,,,,,,,,,,,,,f,1,0.670152187347,j,1,2.22562003136,,,,None,None,,,,,,,,,,,,,,,,,,,,1,4,4,60.00203139506772,Dissertation,2018_Jul_20_1135,3,
,,0,,,Verdadero,Falso,f,A,incongruent_left,La profesora dejó la galleta que compró en el mercado en su cartera durante la clase,1,1,1,0,f,1,13,La galleta estaba en la cartera durante la clase.,,,,,,,,,,,,,,,,,,,,,,,,,0,0,0,0,0,74,74,12,,,,,,,,,,,,,,,,,,0.817260980606,0.768306016922,0.817260980606,0.25138092041,0.187811851501,1.06864190102,0.317111968994,0.237468004227,1.38575387001,0.30001616478,0.220444917679,1.68577003479,0.283943891525,0.202466011047,1.96971392632,0.285426139832,0.221716165543,2.25514006615,0.300234794617,0.237280130386,2.55537486076,0.317412137985,0.251863956451,2.87278699875,0.267493009567,0.171122074127,3.14028000832,0.317289829254,0.251742839813,3.45756983757,0.28400015831,0.187530040741,3.74156999588,0.301450967789,0.188195943832,4.04302096367,0.317770004272,0.254211902618,4.36079096794,0.284621953964,0.222023010254,4.64541292191,,,,0.316019058228,0.253731012344,4.96143198013,0.284844875336,0.219784975052,5.24627685547,,,,,f,1,0.639194965363,f,1,1.59061193466,,,,None,None,,,,,,,,,,,,,,,,,,,,1,4,4,60.00203139506772,Dissertation,2018_Jul_20_1135,3,
,,0,,,Verdadero,Falso,f,A,single_right,The girl,0,0,0,1,j,0,302,a,,,,,,,,,,,,,,,,,,,,,,,,,1,0,1,0,0,0,0,61,,,,,,,,,,,,,,,,,,,,,,,,,,,,,,,,,,,,,,,,,,,,,,,,,,,,,,,,,,,,,,,,,,,,,,,,,j,1,0.416819095612,None,0,,,,,None,None,,,,,,,,,,,,,,,,,space,306.674922943,,1,4,4,60.00203139506772,Dissertation,2018_Jul_20_1135,3,
,,0,,,Verdadero,Falso,f,B,single_right,Cuando los amigos tienen una fiesta todos toman vino o cerveza,0,0,0,1,j,0,242,Mis amigos no toman whisky en las fiestas.,,,,,,,,,,,,,,,,,,,,,,,,,1,0,1,0,0,1,1,41,,,,,,,,,,,,,,,,,,0.567337036133,0.5248939991,0.567337036133,0.317700862885,0.251307964325,0.885037899017,0.316331148148,0.25386595726,1.20136904716,0.302249908447,0.255017995834,1.50361895561,0.300590991974,0.255009889603,1.80420994759,0.350430011749,0.288735151291,2.15463995934,0.316743135452,0.251701116562,2.47138309479,0.319078922272,0.268076896667,2.79046201706,0.317776918411,0.27193403244,3.10823893547,0.349618196487,0.28676700592,3.45785713196,0.249962806702,0.200879096985,3.70781993866,,,,,,,,,,,,,,,,,,,,,,,j,1,0.489484071732,j,0,2.04298210144,,,,None,None,,,,,,,,,,,,,,,,,,,,1,4,4,60.00203139506772,Dissertation,2018_Jul_20_1135,3,
,,1,,,Verdadero,Falso,f,A,congruent_right,The girl,0,0,0,0,j,0,304,a,,,,,,,,,,,,,,,,,,,,,,,,,1,0,1,0,0,2,2,63,,,,,,,,,,,,,,,,,,,,,,,,,,,,,,,,,,,,,,,,,,,,,,,,,,,,,,,,,,,,,,,,,,,,,,,,,j,1,0.622646093369,None,0,,,,,None,None,,,,,,,,,,,,,,,,,,,,1,4,4,60.00203139506772,Dissertation,2018_Jul_20_1135,3,
,,1,,,Verdadero,Falso,f,B,congruent_right,Después de hacer la tarea Pilar volvió a jugar videojuegos,0,0,0,0,j,0,241,A Pilar le gustan los videojuegos.,,,,,,,,,,,,,,,,,,,,,,,,,1,0,1,0,0,3,3,40,,,,,,,,,,,,,,,,,,0.716536045074,0.684732913971,0.716536045074,0.302395105362,0.254439115524,1.01893115044,0.249754905701,0.204069137573,1.26868605614,0.28467297554,0.238295078278,1.55335903168,0.267460107803,0.223165988922,1.82081913948,0.250528812408,0.204668045044,2.07134795189,0.25036907196,0.203680038452,2.32171702385,0.384078025818,0.336855888367,2.70579504967,0.266845941544,0.202131986618,2.97264099121,0.250972986221,0.203387975693,3.22361397743,,,,,,,,,,,,,,,,,,,,,,,,,,j,1,0.536794900894,f,1,2.02355098724,,,,None,None,,,,,,,,,,,,,,,,,,,,1,4,4,60.00203139506772,Dissertation,2018_Jul_20_1135,3,
,,1,,,Verdadero,Falso,f,A,congruent_left,The girl,0,0,0,0,f,0,303,a,,,,,,,,,,,,,,,,,,,,,,,,,1,0,1,0,0,4,4,62,,,,,,,,,,,,,,,,,,,,,,,,,,,,,,,,,,,,,,,,,,,,,,,,,,,,,,,,,,,,,,,,,,,,,,,,,f,1,0.755801916122,None,0,,,,,None,None,,,,,,,,,,,,,,,,,,,,1,4,4,60.00203139506772,Dissertation,2018_Jul_20_1135,3,
,,1,,,Verdadero,Falso,f,A,congruent_left,The girl,0,0,0,0,f,0,307,a,,,,,,,,,,,,,,,,,,,,,,,,,1,0,1,0,0,5,5,66,,,,,,,,,,,,,,,,,,,,,,,,,,,,,,,,,,,,,,,,,,,,,,,,,,,,,,,,,,,,,,,,,,,,,,,,,f,1,0.490483045578,None,0,,,,,None,None,,,,,,,,,,,,,,,,,,,,1,4,4,60.00203139506772,Dissertation,2018_Jul_20_1135,3,
,,1,,,Verdadero,Falso,f,B,congruent_right,Daniel metió el abrigo que su pareja dejó en la maleta en el clóset cuando regresaron,1,1,0,0,j,0,33,La pareja llevó un abrigo en su equipaje.,,,,,,,,,,,,,,,,,,,,,,,,,1,0,1,0,0,6,6,12,,,,,,,,,,,,,,,,,,0.64967083931,0.600942134857,0.64967083931,0.367875099182,0.270485877991,1.01754593849,0.267152070999,0.186741828918,1.28469800949,0.334670782089,0.25458407402,1.61936879158,0.217258214951,0.138029098511,1.83662700653,0.251111984253,0.171956062317,2.08773899078,0.251253843307,0.189096927643,2.33899283409,0.249577999115,0.186553001404,2.58857083321,0.268321037292,0.206358909607,2.8568918705,0.267658948898,0.185286998749,3.1245508194,0.233214139938,0.154145956039,3.35776495934,0.250628948212,0.171334981918,3.60839390755,0.267464876175,0.184060096741,3.87585878372,0.250495195389,0.167346954346,4.12635397911,,,,0.23446393013,0.171844005585,4.36081790924,0.283427000046,0.200299024582,4.64424490929,,,,,j,1,0.555658102036,f,1,2.42734408379,,,,None,None,,,,,,,,,,,,,,,,,,,,1,4,4,60.00203139506772,Dissertation,2018_Jul_20_1135,3,
,,1,,,Verdadero,Falso,f,B,congruent_right,El padre metió las copas sucias que su hija dejó en la mesa en el lavaplatos cuando acabó de comer,1,1,0,0,j,0,37,El padre limpió la mesa después de la comida.,,,,,,,,,,,,,,,,,,,,,,,,,1,0,1,0,0,7,7,16,,,,,,,,,,,,,,,,,,0.734225988388,0.678221940994,0.734225988388,0.35014295578,0.286436080933,1.08436894417,0.250653028488,0.169041872025,1.33502197266,0.302016973495,0.219180107117,1.63703894615,0.282936096191,0.21674489975,1.91997504234,0.267699956894,0.203276157379,2.18767499924,0.267680168152,0.204874992371,2.45535516739,0.301109790802,0.217961788177,2.75646495819,0.283600091934,0.222848892212,3.04006505013,0.250711917877,0.15382194519,3.290776968,0.316482067108,0.218453168869,3.60725903511,0.302525043488,0.237743854523,3.9097840786,0.333728075027,0.2508020401,4.24351215363,0.234355926514,0.150832176208,4.47786808014,,,,0.249342918396,0.168833017349,4.72721099854,0.302133083344,0.238467931747,5.02934408188,,,,,j,1,0.60199713707,f,1,2.24036884308,,,,None,None,0.283030033112,0.205621957779,5.31237411499,0.300205945969,0.218343019485,5.61258006096,0.301983118057,0.237198114395,5.91456317902,0.35115480423,0.288850069046,6.26571798325,,,,,,,,1,4,4,60.00203139506772,Dissertation,2018_Jul_20_1135,3,
,,0,,,Verdadero,Falso,f,A,single_left,The girl,0,0,0,1,f,0,314,a,,,,,,,,,,,,,,,,,,,,,,,,,1,0,1,0,0,8,8,73,,,,,,,,,,,,,,,,,,,,,,,,,,,,,,,,,,,,,,,,,,,,,,,,,,,,,,,,,,,,,,,,,,,,,,,,,f,1,1.34258413315,None,0,,,,,None,None,,,,,,,,,,,,,,,,,,,,1,4,4,60.00203139506772,Dissertation,2018_Jul_20_1135,3,
,,0,,,Verdadero,Falso,j,B,incongruent_left,El barista vació el café que los clientes dejaron en el fregadero cuando dijeron que estaba feo,0,1,1,0,f,0,117,El barista no escuchó las quejas de los clientes.,,,,,,,,,,,,,,,,,,,,,,,,,1,0,1,0,0,9,9,28,,,,,,,,,,,,,,,,,,0.500771045685,0.447328090668,0.500771045685,0.334141016006,0.254122972488,0.834912061691,0.333338022232,0.269679069519,1.16825008392,0.300387859344,0.216506958008,1.46863794327,0.38556098938,0.322569847107,1.85419893265,0.384204149246,0.305812120438,2.23840308189,0.334566831589,0.251134872437,2.57296991348,0.317859172821,0.238306045532,2.8908290863,0.298918008804,0.215815067291,3.18974709511,0.285681962967,0.221369981766,3.47542905807,0.317446947098,0.254573822021,3.79287600517,0.31728887558,0.254362106323,4.11016488075,0.267641067505,0.205353021622,4.37780594826,0.401673078537,0.323258876801,4.77947902679,,,,0.317062854767,0.25482916832,5.09654188156,0.283620119095,0.222079992294,5.38016200066,,,,,f,1,0.505009889603,j,1,2.07285404205,,,,None,None,0.350620985031,0.270780086517,5.73078298569,,,,,,,,,,,,,,,,,1,4,4,60.00203139506772,Dissertation,2018_Jul_20_1135,3,
,,0,,,Verdadero,Falso,f,B,incongruent_left,Los planos del arquitecto tienen un diseño muy creativo ,0,0,1,0,f,0,251,El arquitecto es muy bueno y creativo.,,,,,,,,,,,,,,,,,,,,,,,,,1,0,1,0,0,10,10,50,,,,,,,,,,,,,,,,,,0.484531879425,0.435803890228,0.484531879425,0.316310167313,0.253751993179,0.800842046738,0.301108837128,0.252717018127,1.10195088387,0.318978071213,0.271923065186,1.42092895508,0.332932949066,0.287350893021,1.75386190414,0.318413972855,0.255069971085,2.072275877,0.350987195969,0.300890922546,2.42326307297,0.250238895416,0.204629898071,2.67350196838,0.300406932831,0.252545118332,2.97390890121,,,,,,,,,,,,,,,,,,,,,,,,,,,,,f,1,0.74006485939,f,1,1.5579559803,,,,None,None,,,,,,,,,,,,,,,,,,,,1,4,4,60.00203139506772,Dissertation,2018_Jul_20_1135,3,
,,0,,,Verdadero,Falso,f,B,incongruent_left,Cuando la chica cena los platos terminan muy sucios,0,1,1,0,f,0,109,La chica come de manera descuidada.  ,,,,,,,,,,,,,,,,,,,,,,,,,1,0,1,0,0,11,11,24,,,,,,,,,,,,,,,,,,0.718171834946,0.66276216507,0.718171834946,0.283472061157,0.237186193466,1.0016438961,0.285357952118,0.237649917603,1.28700184822,0.301299095154,0.2547519207,1.58830094337,0.300084114075,0.254235029221,1.88838505745,0.301187992096,0.254484891891,2.18957304955,0.28354883194,0.238211154938,2.47312188148,0.318269968033,0.256469011307,2.79139184952,0.283223152161,0.237601041794,3.07461500168,,,,,,,,,,,,,,,,,,,,,,,,,,,,,f,1,0.58683514595,f,1,1.27401590347,,,,None,None,,,,,,,,,,,,,,,,,,,,1,4,4,60.00203139506772,Dissertation,2018_Jul_20_1135,3,
,,0,,,Verdadero,Falso,j,B,incongruent_left,La maestra dejó la bebida que compró en su cartera durante la clase,0,1,1,0,f,0,113,La maestra tomaba la bebida mientras daba la lección.,,,,,,,,,,,,,,,,,,,,,,,,,1,0,1,0,0,12,12,26,,,,,,,,,,,,,,,,,,0.600885152817,0.551952123642,0.600885152817,0.316869020462,0.269103050232,0.917754173279,0.284207820892,0.217043161392,1.20196199417,0.301076173782,0.254718065262,1.50303816795,0.316751003265,0.253572940826,1.81978917122,0.250548839569,0.202175140381,2.07033801079,0.319358110428,0.271512985229,2.38969612122,0.316844940186,0.254255056381,2.7065410614,0.301137924194,0.254384994507,3.0076789856,0.351361036301,0.272394180298,3.3590400219,0.334213018417,0.268587112427,3.69325304031,0.250293970108,0.205754041672,3.94354701042,0.366240024567,0.302695989609,4.30978703499,,,,,,,,,,,,,,,,,f,1,0.655205011368,j,1,2.15688896179,,,,None,None,,,,,,,,,,,,,,,,,,,,1,4,4,60.00203139506772,Dissertation,2018_Jul_20_1135,3,
,,1,,,Verdadero,Falso,f,B,congruent_left,Este año cuando gritaron el grito sonó hasta por las montañas,1,1,0,0,f,0,24,Se escuchó el grito desde lejos.,,,,,,,,,,,,,,,,,,,,,,,,,1,0,1,0,0,13,13,3,,,,,,,,,,,,,,,,,,0.61868596077,0.582581043243,0.61868596077,0.283849000931,0.221472978592,0.9025349617,0.301289081573,0.2551009655,1.20382404327,0.266164064407,0.201141119003,1.46998810768,0.317404985428,0.26847410202,1.78739309311,0.302272081375,0.255538225174,2.08966517448,0.300182819366,0.254576921463,2.38984799385,0.332895994186,0.288182020187,2.72274398804,0.300958156586,0.235892057419,3.02370214462,0.368944883347,0.302243947983,3.39264702797,0.300812005997,0.239062070847,3.69345903397,,,,,,,,,,,,,,,,,,,,,,,f,1,0.673852205276,f,1,1.69505500793,,,,None,None,,,,,,,,,,,,,,,,,,,,1,4,4,60.00203139506772,Dissertation,2018_Jul_20_1135,3,
,,0,,,Verdadero,Falso,j,B,incongruent_right,Cuando Dora compró la comida se le quedó en el mercado,1,1,1,0,j,1,30,Dora salió del mercado con la comida.,,,,,,,,,,,,,,,,,,,,,,,,,1,0,1,0,0,14,14,9,,,,,,,,,,,,,,,,,,0.634946107864,0.572408914566,0.634946107864,0.283646821976,0.203549146652,0.91859292984,0.317136049271,0.253176927567,1.23572897911,0.284639120102,0.236929893494,1.52036809921,0.284232854843,0.20387005806,1.80460095406,0.28422999382,0.238582134247,2.08883094788,0.268661022186,0.223850011826,2.35749197006,0.282853126526,0.220422029495,2.64034509659,0.268280029297,0.221482992172,2.90862512589,0.315988779068,0.269325017929,3.22461390495,0.267011165619,0.218913793564,3.49162507057,,,,,,,,,,,,,,,,,,,,,,,j,1,0.724802017212,j,1,2.40866994858,,,,None,None,,,,,,,,,,,,,,,,,,,,1,4,4,60.00203139506772,Dissertation,2018_Jul_20_1135,3,
,,0,,,Verdadero,Falso,f,B,single_left,Los pasteles en la cocina de los Menéndez son para la fiesta de cumpleaños,0,0,0,1,f,0,232,Los Menéndez van a una fiesta.,,,,,,,,,,,,,,,,,,,,,,,,,1,0,1,0,0,15,15,31,,,,,,,,,,,,,,,,,,0.634691953659,0.589313983917,0.634691953659,0.301204919815,0.23796415329,0.935896873474,0.28419303894,0.221965074539,1.22008991241,0.283764123917,0.221163988113,1.50385403633,0.267026901245,0.187718153,1.77088093758,0.26845908165,0.189987897873,2.03934001923,0.266304969788,0.186305999756,2.30564498901,0.266938924789,0.201805114746,2.5725839138,0.284307003021,0.217955112457,2.85689091682,0.318372964859,0.271817922592,3.17526388168,0.284274101257,0.22252702713,3.45953798294,0.284137010574,0.222191095352,3.74367499352,0.267477989197,0.202796936035,4.01115298271,0.267611026764,0.188313961029,4.27876400948,,,,,,,,,,,,,,f,1,0.473681926727,f,1,3.99496102333,,,,None,None,,,,,,,,,,,,,,,,,,,,1,4,4,60.00203139506772,Dissertation,2018_Jul_20_1135,3,
,,0,,,Verdadero,Falso,f,B,incongruent_right,Cuando mi madre ayudaba la ropa salía de la lavadora manchada,0,1,1,0,j,0,108,Mi madre arruinó mucha ropa. ,,,,,,,,,,,,,,,,,,,,,,,,,1,0,1,0,0,16,16,23,,,,,,,,,,,,,,,,,,0.601017951965,0.548774957657,0.601017951965,0.284049987793,0.221805095673,0.885067939758,0.249922990799,0.188306093216,1.13499093056,0.284066915512,0.217319965363,1.41905784607,0.233037948608,0.186424016953,1.65209579468,0.268721103668,0.221603155136,1.92081689835,0.283107042313,0.234950065613,2.20392394066,0.317482948303,0.254329919815,2.52140688896,0.283603906631,0.203160047531,2.80501079559,0.284908056259,0.236570835114,3.08991885185,0.300374984741,0.236322164536,3.39029383659,,,,,,,,,,,,,,,,,,,,,,,j,1,0.671832084656,j,0,1.74047279358,,,,None,None,,,,,,,,,,,,,,,,,,,,1,4,4,60.00203139506772,Dissertation,2018_Jul_20_1135,3,
,,1,,,Verdadero,Falso,j,B,congruent_left,Después de pintar su casa Julieta tuvo que limpiar,0,0,0,0,f,0,243,Las paredes de la casa están descoloridas. ,,,,,,,,,,,,,,,,,,,,,,,,,1,0,1,0,0,17,17,42,,,,,,,,,,,,,,,,,,0.617941856384,0.590795993805,0.617941856384,0.233529090881,0.184490919113,0.851470947266,0.266489028931,0.216992139816,1.1179599762,0.217783927917,0.171814918518,1.33574390411,0.250686168671,0.185261964798,1.58643007278,0.217425823212,0.154914855957,1.803855896,0.28440618515,0.238543987274,2.08826208115,0.26581788063,0.218095064163,2.35407996178,0.252486944199,0.204329013824,2.60656690598,,,,,,,,,,,,,,,,,,,,,,,,,,,,,f,1,0.522804021835,j,1,6.61701989174,,,,None,None,,,,,,,,,,,,,,,,,,,,1,4,4,60.00203139506772,Dissertation,2018_Jul_20_1135,3,
,,0,,,Verdadero,Falso,f,B,single_right,Los meseros preparan las verduras en la cocina antes de servirlas,0,0,0,1,j,0,234,Los meseros lavan las verduras.,,,,,,,,,,,,,,,,,,,,,,,,,1,0,1,0,0,18,18,33,,,,,,,,,,,,,,,,,,0.66707110405,0.617161989212,0.66707110405,0.301286935806,0.255738973618,0.968358039856,0.217009067535,0.15084695816,1.18536710739,0.217676877975,0.171695947647,1.40304398537,0.233252048492,0.171324014664,1.63629603386,0.216094017029,0.16867685318,1.85239005089,0.234459877014,0.186015844345,2.0868499279,0.267418146133,0.202979803085,2.35426807404,0.250530958176,0.185766935349,2.60479903221,0.233733892441,0.169737815857,2.83853292465,0.301880121231,0.237898111343,3.14041304588,,,,,,,,,,,,,,,,,,,,,,,j,1,1.22576999664,f,1,2.13883495331,,,,None,None,,,,,,,,,,,,,,,,,,,,1,4,4,60.00203139506772,Dissertation,2018_Jul_20_1135,3,
,,0,,,Verdadero,Falso,f,B,incongruent_right,El chico toca el violín raro,0,0,1,0,j,0,257,El chico no sabe tocar bien.,,,,,,,,,,,,,,,,,,,,,,,,,1,0,1,0,0,19,19,56,,,,,,,,,,,,,,,,,,0.567285060883,0.545237064362,0.567285060883,0.250628948212,0.201152086258,0.817914009094,0.250378847122,0.220601081848,1.06829285622,0.249462127686,0.219631910324,1.3177549839,0.251690864563,0.204194068909,1.56944584846,0.234395027161,0.204904794693,1.80384087563,,,,,,,,,,,,,,,,,,,,,,,,,,,,,,,,,,,,,,j,1,0.734863996506,f,1,1.95725607872,,,,None,None,,,,,,,,,,,,,,,,,,,,1,4,4,60.00203139506772,Dissertation,2018_Jul_20_1135,3,
,,0,,,Verdadero,Falso,f,B,single_left,Mi celular se me rompió cuando se me cayó al piso,0,0,0,1,f,0,252,Mi celular ya está roto.,,,,,,,,,,,,,,,,,,,,,,,,,1,0,1,0,0,20,20,51,,,,,,,,,,,,,,,,,,0.582412958145,0.543450117111,0.582412958145,0.250583171844,0.170777082443,0.83299612999,0.28383898735,0.203980922699,1.11683511734,0.284260988235,0.204935789108,1.40109610558,0.234108924866,0.153696060181,1.63520503044,0.25028014183,0.185985088348,1.88548517227,0.284518957138,0.237869024277,2.17000412941,0.300312042236,0.236487150192,2.47031617165,0.250490903854,0.186667203903,2.7208070755,0.269598960876,0.221774101257,2.99040603638,0.282467126846,0.237050056458,3.27287316322,,,,,,,,,,,,,,,,,,,,,,,f,1,0.704359054565,f,1,4.38144183159,,,,None,None,,,,,,,,,,,,,,,,,,,,1,4,4,60.00203139506772,Dissertation,2018_Jul_20_1135,3,
,,1,,,Verdadero,Falso,j,B,congruent_left,Los novios tomaron vino durante la fiesta,0,0,0,0,f,0,247,Los novios sólo toman cerveza.,,,,,,,,,,,,,,,,,,,,,,,,,1,0,1,0,0,21,21,46,,,,,,,,,,,,,,,,,,0.533013105392,0.502873897552,0.533013105392,0.28394985199,0.218584060669,0.816962957382,0.250916004181,0.203491210938,1.06787896156,0.268841981888,0.238943815231,1.33672094345,0.250759124756,0.205069065094,1.58748006821,0.25021481514,0.20478105545,1.83769488335,0.26703119278,0.220007896423,2.10472607613,,,,,,,,,,,,,,,,,,,,,,,,,,,,,,,,,,,f,1,0.586274862289,j,1,1.10652899742,,,,None,None,,,,,,,,,,,,,,,,,,,,1,4,4,60.00203139506772,Dissertation,2018_Jul_20_1135,3,
,,0,,,Verdadero,Falso,f,B,incongruent_left,Antes de que celebraran la leche se volvió agria,0,1,1,0,f,0,105,Van a tener que comprar más leche.,,,,,,,,,,,,,,,,,,,,,,,,,1,0,1,0,0,22,22,22,,,,,,,,,,,,,,,,,,0.600023984909,0.562350988388,0.600023984909,0.268633842468,0.220628976822,0.868657827377,0.267638206482,0.217385053635,1.13629603386,0.233788013458,0.187707901001,1.37008404732,0.232383966446,0.184888839722,1.60246801376,0.250869989395,0.201362848282,1.85333800316,0.318018913269,0.270579099655,2.17135691643,0.334367990494,0.289344072342,2.50572490692,0.283560037613,0.221035957336,2.78928494453,,,,,,,,,,,,,,,,,,,,,,,,,,,,,f,1,0.655200004578,f,1,1.72350096703,,,,None,None,,,,,,,,,,,,,,,,,,,,1,4,4,60.00203139506772,Dissertation,2018_Jul_20_1135,3,
,,1,,,Verdadero,Falso,f,B,congruent_left,Las chicas acomodaron la ropa que sus padres les dejaron en su cuarto dentro del clóset antes de dormir,1,1,0,0,f,0,36,Los padres doblaron la ropa para sus hijas.,,,,,,,,,,,,,,,,,,,,,,,,,1,0,1,0,0,23,23,15,,,,,,,,,,,,,,,,,,0.602602005005,0.541253805161,0.602602005005,0.299972057343,0.219880104065,0.902574062347,0.302223920822,0.239916801453,1.20479798317,0.250291109085,0.151947975159,1.45508909225,0.266301870346,0.188150167465,1.7213909626,0.267930984497,0.171159982681,1.9893219471,0.282433986664,0.201062917709,2.27175593376,0.302714109421,0.23396897316,2.57447004318,0.317758083344,0.234895944595,2.89222812653,0.300174951553,0.22175693512,3.19240307808,0.300994873047,0.201999187469,3.49339795113,0.299962997437,0.217031002045,3.79336094856,0.302360057831,0.238069057465,4.09572100639,0.300305128098,0.221232175827,4.39602613449,,,,0.317608833313,0.238732099533,4.7136349678,0.299785137177,0.202842950821,5.01342010498,,,,,f,1,0.622213125229,j,0,2.2428650856,,,,None,None,0.318318843842,0.237519979477,5.33173894882,0.333143949509,0.249377965927,5.66488289833,0.302045106888,0.221815109253,5.96692800522,,,,,,,,,,,1,4,4,60.00203139506772,Dissertation,2018_Jul_20_1135,3,
,,0,,,Verdadero,Falso,j,B,incongruent_right,Tere colocó la prueba que la Sra. Martín le dejó en su mochila sin mirar la nota,0,1,1,0,j,0,116,A Tere le importó mucho su nota.,,,,,,,,,,,,,,,,,,,,,,,,,1,0,1,0,0,24,24,27,,,,,,,,,,,,,,,,,,0.551236152649,0.437922000885,0.551236152649,0.250483989716,0.186192035675,0.801720142365,0.250832796097,0.186472892761,1.05255293846,0.317800998688,0.235211849213,1.37035393715,0.351024150848,0.254204034805,1.721378088,0.350801944733,0.284331083298,2.07218003273,0.285229921341,0.222794055939,2.35740995407,0.299427032471,0.219825029373,2.65683698654,0.368261098862,0.268530130386,3.0250980854,0.316936016083,0.220577955246,3.34203410149,0.301203012466,0.187460184097,3.64323711395,0.317728996277,0.205097913742,3.96096611023,0.316888809204,0.221050024033,4.27785491943,0.284105062485,0.170357942581,4.56195998192,,,,0.317654132843,0.20444893837,4.87961411476,0.351059913635,0.250101089478,5.2306740284,,,,,j,1,0.703809022903,j,1,1.55595898628,,,,None,None,0.350531101227,0.270614862442,5.58120512962,,,,,,,,,,,,,,,,,1,4,4,60.00203139506772,Dissertation,2018_Jul_20_1135,3,
