practiceimage,PracticeimageCorrAns,congruent,practiceSentence,practiceSentenceCompQ,compRespL,compRespR,compRespCorr,block,image,sentence,ambiguous,critical,Incongruent,Single,imageCorrAns,incongruentambiguous,criticalSentenceCode,compQ,RepeatFlankerIfNeeded.thisRepN,RepeatFlankerIfNeeded.thisTrialN,RepeatFlankerIfNeeded.thisN,RepeatFlankerIfNeeded.thisIndex,practiceFlankerLoop.thisRepN,practiceFlankerLoop.thisTrialN,practiceFlankerLoop.thisN,practiceFlankerLoop.thisIndex,RepeatPracticeSentencesIfNeeded.thisRepN,RepeatPracticeSentencesIfNeeded.thisTrialN,RepeatPracticeSentencesIfNeeded.thisN,RepeatPracticeSentencesIfNeeded.thisIndex,practiceSentenceLoop.thisRepN,practiceSentenceLoop.thisTrialN,practiceSentenceLoop.thisN,practiceSentenceLoop.thisIndex,MixedPractice.thisRepN,MixedPractice.thisTrialN,MixedPractice.thisN,MixedPractice.thisIndex,MixedPracticeTrial.thisRepN,MixedPracticeTrial.thisTrialN,MixedPracticeTrial.thisN,MixedPracticeTrial.thisIndex,blocks.thisRepN,blocks.thisTrialN,blocks.thisN,blocks.thisIndex,trials.thisRepN,trials.thisTrialN,trials.thisN,trials.thisIndex,keyResponseIntroText.keys,keyResponseIntroText.rt,keyResponseIntro2Text.keys,keyResponseIntro2Text.rt,FlankerInstructions_keyresponse.keys,FlankerInstructions_keyresponse.rt,FlankerInstructions2_keyresponse.keys,FlankerInstructions2_keyresponse.rt,PracticeFlankerResponse.keys,PracticeFlankerResponse.corr,PracticeFlankerResponse.rt,SPRInstructions_keyresponse.keys,SPRInstructions_keyresponse.rt,key_resp_5.keys,key_resp_5.rt,SPRinstructions2_keyresponse.keys,SPRinstructions2_keyresponse.rt,IRI_0,IRI_FL_0,space_0,IRI_1,IRI_FL_1,space_1,IRI_2,IRI_FL_2,space_2,IRI_3,IRI_FL_3,space_3,IRI_4,IRI_FL_4,space_4,IRI_5,IRI_FL_5,space_5,IRI_6,IRI_FL_6,space_6,IRI_7,IRI_FL_7,space_7,IRI_8,IRI_FL_8,space_8,IRI_9,IRI_FL_9,space_9,IRI_10,IRI_FL_10,space_10,IRI_11,IRI_FL_11,space_11,IRI_12,IRI_FL_12,space_12,IRI_13,IRI_FL_13,space_13,key_resp_practiceCompQ.keys,key_resp_practiceCompQ.corr,key_resp_practiceCompQ.rt,IRI_14,IRI_FL_14,space_14,IRI_15,IRI_FL_15,space_15,combinedInstructions_keyresponse.keys,combinedInstructions_keyresponse.rt,keyResponseInstructionsMixed.keys,keyResponseInstructionsMixed.rt,flankerkeyresponse.keys,flankerkeyresponse.corr,flankerkeyresponse.rt,CompQkeyresponse.keys,CompQkeyresponse.corr,CompQkeyresponse.rt,key_resp_3.keys,keyResponsePreStart.keys,keyResponsePreStart.rt,key_resp_2.keys,key_resp_4.keys,IRI_16,IRI_FL_16,space_16,IRI_17,IRI_FL_17,space_17,IRI_18,IRI_FL_18,space_18,IRI_19,IRI_FL_19,space_19,key_resp_4.rt,rest_keyresponse.keys,rest_keyresponse.rt,IRI_20,IRI_FL_20,space_20,session,participant,level,frameRate,expName,date,group,
,,,,,,,,,,,,,,,,,,,,,,,,,,,,,,,,,,,,,,,,,,,,,,,,,,,space,37.5090780258,,,,,,,,,,,,,,,,,,,,,,,,,,,,,,,,,,,,,,,,,,,,,,,,,,,,,,,,,,,,,,,,,,,,,,,,,,,,,,,,,,,,,,,,,,,,,,,,,,,,1,5,4,60.31186191108887,Dissertation,2018_Jul_20_1543,4,
,,,,,,,,,,,,,,,,,,,,,,,,,,,,,,,,,,,,,,,,,,,,,,,,,,,,,space,43.1068959236,,,,,,,,,,,,,,,,,,,,,,,,,,,,,,,,,,,,,,,,,,,,,,,,,,,,,,,,,,,,,,,,,,,,,,,,,,,,,,,,,,,,,,,,,,,,,,,,,,1,5,4,60.31186191108887,Dissertation,2018_Jul_20_1543,4,
,,,,,,,,,,,,,,,,,,,,,,,,,,,,,,,,,,,,,,,,,,,,,,,,,,,,,,,space,114.002727985,,,,,,,,,,,,,,,,,,,,,,,,,,,,,,,,,,,,,,,,,,,,,,,,,,,,,,,,,,,,,,,,,,,,,,,,,,,,,,,,,,,,,,,,,,,,,,,,1,5,4,60.31186191108887,Dissertation,2018_Jul_20_1543,4,
incongruent_right,j,0,Tu tarea es leer la frase de la manera más natural posible,No tienes que prestarle atención a la oración.,Verdadero,Falso,j,practice,,,,,,,,,,,0,0,0,0,0,0,0,3,,,,,,,,,,,,,,,,,,,,,,,,,,,,,,,space,7.78804898262,j,1,1.25565481186,,,,,,,,,,,,,,,,,,,,,,,,,,,,,,,,,,,,,,,,,,,,,,,,,,,,,,,,,,,,,,,,,,,,,,,,,,,,,,,,,,,,,,,,,,,1,5,4,60.31186191108887,Dissertation,2018_Jul_20_1543,4,
incongruent_left,f,0,A veces serán más cortas,Todas las frases son iguales.,Verdadero,Falso,j,practice,,,,,,,,,,,0,0,0,0,0,1,1,2,,,,,,,,,,,,,,,,,,,,,,,,,,,,,,,,,f,1,0.7066218853,,,,,,,,,,,,,,,,,,,,,,,,,,,,,,,,,,,,,,,,,,,,,,,,,,,,,,,,,,,,,,,,,,,,,,,,,,,,,,,,,,,,,,,,,,,1,5,4,60.31186191108887,Dissertation,2018_Jul_20_1543,4,
congruent_left,f,1,Este es un ejemplo de las frases que verás a lo largo del experimento,Viste un ejemplo de una oración estimulo.,Verdadero,Falso,f,practice,,,,,,,,,,,0,0,0,0,0,2,2,0,,,,,,,,,,,,,,,,,,,,,,,,,,,,,,,,,f,1,0.686065912247,,,,,,,,,,,,,,,,,,,,,,,,,,,,,,,,,,,,,,,,,,,,,,,,,,,,,,,,,,,,,,,,,,,,,,,,,,,,,,,,,,,,,,,,,,,1,5,4,60.31186191108887,Dissertation,2018_Jul_20_1543,4,
single_left,f,0,Las preguntas que siguen cada oración a veces serán obvias y a veces serán más difíciles,La dificultad de cada pregunta varía.,Verdadero,Falso,f,practice,,,,,,,,,,,0,0,0,0,0,3,3,4,,,,,,,,,,,,,,,,,,,,,,,,,,,,,,,,,f,1,0.522295951843,,,,,,,,,,,,,,,,,,,,,,,,,,,,,,,,,,,,,,,,,,,,,,,,,,,,,,,,,,,,,,,,,,,,,,,,,,,,,,,,,,,,,,,,,,,1,5,4,60.31186191108887,Dissertation,2018_Jul_20_1543,4,
congruent_right,j,1,A veces las oraciones serán muy largas,Algunas frases son largas.,Verdadero,Falso,f,practice,,,,,,,,,,,0,0,0,0,0,4,4,1,,,,,,,,,,,,,,,,,,,,,,,,,,,,,,,,,j,1,0.640249967575,,,,,,,,,,,,,,,,,,,,,,,,,,,,,,,,,,,,,,,,,,,,,,,,,,,,,,,,,,,,,,,,,,,,,,,,,,,,,,,,,,,,,,,,,,,1,5,4,60.31186191108887,Dissertation,2018_Jul_20_1543,4,
single_right,j,0,No pasa nada si tienes que adivinar la respuesta de vez en cuando,Es importante que no adivines.,Verdadero,Falso,j,practice,,,,,,,,,,,0,0,0,0,0,5,5,5,,,,,,,,,,,,,,,,,,,,,,,,,,,,,,,,,j,1,0.602797985077,,,,,,,,,,,,,,,,,,,,,,,,,,,,,,,,,,,,,,,,,,,,,,,,,,,,,,,,,,,,,,,,,,,,,,,,,,,,,,,,,,,,,,,,,,,1,5,4,60.31186191108887,Dissertation,2018_Jul_20_1543,4,
incongruent_right,j,0,Tu tarea es leer la frase de la manera más natural posible,No tienes que prestarle atención a la oración.,Verdadero,Falso,j,practice,,,,,,,,,,,0,0,0,0,1,0,6,3,,,,,,,,,,,,,,,,,,,,,,,,,,,,,,,,,j,1,0.556286096573,,,,,,,,,,,,,,,,,,,,,,,,,,,,,,,,,,,,,,,,,,,,,,,,,,,,,,,,,,,,,,,,,,,,,,,,,,,,,,,,,,,,,,,,,,,1,5,4,60.31186191108887,Dissertation,2018_Jul_20_1543,4,
congruent_right,j,1,A veces las oraciones serán muy largas,Algunas frases son largas.,Verdadero,Falso,f,practice,,,,,,,,,,,0,0,0,0,1,1,7,1,,,,,,,,,,,,,,,,,,,,,,,,,,,,,,,,,j,1,0.52167391777,,,,,,,,,,,,,,,,,,,,,,,,,,,,,,,,,,,,,,,,,,,,,,,,,,,,,,,,,,,,,,,,,,,,,,,,,,,,,,,,,,,,,,,,,,,1,5,4,60.31186191108887,Dissertation,2018_Jul_20_1543,4,
congruent_left,f,1,Este es un ejemplo de las frases que verás a lo largo del experimento,Viste un ejemplo de una oración estimulo.,Verdadero,Falso,f,practice,,,,,,,,,,,0,0,0,0,1,2,8,0,,,,,,,,,,,,,,,,,,,,,,,,,,,,,,,,,f,1,0.554610967636,,,,,,,,,,,,,,,,,,,,,,,,,,,,,,,,,,,,,,,,,,,,,,,,,,,,,,,,,,,,,,,,,,,,,,,,,,,,,,,,,,,,,,,,,,,1,5,4,60.31186191108887,Dissertation,2018_Jul_20_1543,4,
incongruent_left,f,0,A veces serán más cortas,Todas las frases son iguales.,Verdadero,Falso,j,practice,,,,,,,,,,,0,0,0,0,1,3,9,2,,,,,,,,,,,,,,,,,,,,,,,,,,,,,,,,,f,1,0.553760766983,,,,,,,,,,,,,,,,,,,,,,,,,,,,,,,,,,,,,,,,,,,,,,,,,,,,,,,,,,,,,,,,,,,,,,,,,,,,,,,,,,,,,,,,,,,1,5,4,60.31186191108887,Dissertation,2018_Jul_20_1543,4,
single_right,j,0,No pasa nada si tienes que adivinar la respuesta de vez en cuando,Es importante que no adivines.,Verdadero,Falso,j,practice,,,,,,,,,,,0,0,0,0,1,4,10,5,,,,,,,,,,,,,,,,,,,,,,,,,,,,,,,,,j,1,0.468551874161,,,,,,,,,,,,,,,,,,,,,,,,,,,,,,,,,,,,,,,,,,,,,,,,,,,,,,,,,,,,,,,,,,,,,,,,,,,,,,,,,,,,,,,,,,,1,5,4,60.31186191108887,Dissertation,2018_Jul_20_1543,4,
single_left,f,0,Las preguntas que siguen cada oración a veces serán obvias y a veces serán más difíciles,La dificultad de cada pregunta varía.,Verdadero,Falso,f,practice,,,,,,,,,,,0,0,0,0,1,5,11,4,,,,,,,,,,,,,,,,,,,,,,,,,,,,,,,,,f,1,0.488561868668,,,,,,,,,,,,,,,,,,,,,,,,,,,,,,,,,,,,,,,,,,,,,,,,,,,,,,,,,,,,,,,,,,,,,,,,,,,,,,,,,,,,,,,,,,,1,5,4,60.31186191108887,Dissertation,2018_Jul_20_1543,4,
congruent_left,f,1,Este es un ejemplo de las frases que verás a lo largo del experimento,Viste un ejemplo de una oración estimulo.,Verdadero,Falso,f,practice,,,,,,,,,,,0,0,0,0,2,0,12,0,,,,,,,,,,,,,,,,,,,,,,,,,,,,,,,,,f,1,0.572455883026,,,,,,,,,,,,,,,,,,,,,,,,,,,,,,,,,,,,,,,,,,,,,,,,,,,,,,,,,,,,,,,,,,,,,,,,,,,,,,,,,,,,,,,,,,,1,5,4,60.31186191108887,Dissertation,2018_Jul_20_1543,4,
incongruent_left,f,0,A veces serán más cortas,Todas las frases son iguales.,Verdadero,Falso,j,practice,,,,,,,,,,,0,0,0,0,2,1,13,2,,,,,,,,,,,,,,,,,,,,,,,,,,,,,,,,,f,1,0.654945850372,,,,,,,,,,,,,,,,,,,,,,,,,,,,,,,,,,,,,,,,,,,,,,,,,,,,,,,,,,,,,,,,,,,,,,,,,,,,,,,,,,,,,,,,,,,1,5,4,60.31186191108887,Dissertation,2018_Jul_20_1543,4,
single_right,j,0,No pasa nada si tienes que adivinar la respuesta de vez en cuando,Es importante que no adivines.,Verdadero,Falso,j,practice,,,,,,,,,,,0,0,0,0,2,2,14,5,,,,,,,,,,,,,,,,,,,,,,,,,,,,,,,,,j,1,0.540706157684,,,,,,,,,,,,,,,,,,,,,,,,,,,,,,,,,,,,,,,,,,,,,,,,,,,,,,,,,,,,,,,,,,,,,,,,,,,,,,,,,,,,,,,,,,,1,5,4,60.31186191108887,Dissertation,2018_Jul_20_1543,4,
incongruent_right,j,0,Tu tarea es leer la frase de la manera más natural posible,No tienes que prestarle atención a la oración.,Verdadero,Falso,j,practice,,,,,,,,,,,0,0,0,0,2,3,15,3,,,,,,,,,,,,,,,,,,,,,,,,,,,,,,,,,j,1,0.555233001709,,,,,,,,,,,,,,,,,,,,,,,,,,,,,,,,,,,,,,,,,,,,,,,,,,,,,,,,,,,,,,,,,,,,,,,,,,,,,,,,,,,,,,,,,,,1,5,4,60.31186191108887,Dissertation,2018_Jul_20_1543,4,
single_left,f,0,Las preguntas que siguen cada oración a veces serán obvias y a veces serán más difíciles,La dificultad de cada pregunta varía.,Verdadero,Falso,f,practice,,,,,,,,,,,0,0,0,0,2,4,16,4,,,,,,,,,,,,,,,,,,,,,,,,,,,,,,,,,f,1,0.439122915268,,,,,,,,,,,,,,,,,,,,,,,,,,,,,,,,,,,,,,,,,,,,,,,,,,,,,,,,,,,,,,,,,,,,,,,,,,,,,,,,,,,,,,,,,,,1,5,4,60.31186191108887,Dissertation,2018_Jul_20_1543,4,
congruent_right,j,1,A veces las oraciones serán muy largas,Algunas frases son largas.,Verdadero,Falso,f,practice,,,,,,,,,,,0,0,0,0,2,5,17,1,,,,,,,,,,,,,,,,,,,,,,,,,,,,,,,,,j,1,0.57124209404,,,,,,,,,,,,,,,,,,,,,,,,,,,,,,,,,,,,,,,,,,,,,,,,,,,,,,,,,,,,,,,,,,,,,,,,,,,,,,,,,,,,,,,,,,,1,5,4,60.31186191108887,Dissertation,2018_Jul_20_1543,4,
congruent_left,f,1,Este es un ejemplo de las frases que verás a lo largo del experimento,Viste un ejemplo de una oración estimulo.,Verdadero,Falso,f,practice,,,,,,,,,,,0,0,0,0,3,0,18,0,,,,,,,,,,,,,,,,,,,,,,,,,,,,,,,,,f,1,0.472095012665,,,,,,,,,,,,,,,,,,,,,,,,,,,,,,,,,,,,,,,,,,,,,,,,,,,,,,,,,,,,,,,,,,,,,,,,,,,,,,,,,,,,,,,,,,,1,5,4,60.31186191108887,Dissertation,2018_Jul_20_1543,4,
incongruent_left,f,0,A veces serán más cortas,Todas las frases son iguales.,Verdadero,Falso,j,practice,,,,,,,,,,,0,0,0,0,3,1,19,2,,,,,,,,,,,,,,,,,,,,,,,,,,,,,,,,,f,1,0.538259029388,,,,,,,,,,,,,,,,,,,,,,,,,,,,,,,,,,,,,,,,,,,,,,,,,,,,,,,,,,,,,,,,,,,,,,,,,,,,,,,,,,,,,,,,,,,1,5,4,60.31186191108887,Dissertation,2018_Jul_20_1543,4,
incongruent_right,j,0,Tu tarea es leer la frase de la manera más natural posible,No tienes que prestarle atención a la oración.,Verdadero,Falso,j,practice,,,,,,,,,,,0,0,0,0,3,2,20,3,,,,,,,,,,,,,,,,,,,,,,,,,,,,,,,,,j,1,0.504269838333,,,,,,,,,,,,,,,,,,,,,,,,,,,,,,,,,,,,,,,,,,,,,,,,,,,,,,,,,,,,,,,,,,,,,,,,,,,,,,,,,,,,,,,,,,,1,5,4,60.31186191108887,Dissertation,2018_Jul_20_1543,4,
congruent_right,j,1,A veces las oraciones serán muy largas,Algunas frases son largas.,Verdadero,Falso,f,practice,,,,,,,,,,,0,0,0,0,3,3,21,1,,,,,,,,,,,,,,,,,,,,,,,,,,,,,,,,,j,1,0.535866975784,,,,,,,,,,,,,,,,,,,,,,,,,,,,,,,,,,,,,,,,,,,,,,,,,,,,,,,,,,,,,,,,,,,,,,,,,,,,,,,,,,,,,,,,,,,1,5,4,60.31186191108887,Dissertation,2018_Jul_20_1543,4,
single_right,j,0,No pasa nada si tienes que adivinar la respuesta de vez en cuando,Es importante que no adivines.,Verdadero,Falso,j,practice,,,,,,,,,,,0,0,0,0,3,4,22,5,,,,,,,,,,,,,,,,,,,,,,,,,,,,,,,,,j,1,0.455927848816,,,,,,,,,,,,,,,,,,,,,,,,,,,,,,,,,,,,,,,,,,,,,,,,,,,,,,,,,,,,,,,,,,,,,,,,,,,,,,,,,,,,,,,,,,,1,5,4,60.31186191108887,Dissertation,2018_Jul_20_1543,4,
single_left,f,0,Las preguntas que siguen cada oración a veces serán obvias y a veces serán más difíciles,La dificultad de cada pregunta varía.,Verdadero,Falso,f,practice,,,,,,,,,,,0,0,0,0,3,5,23,4,,,,,,,,,,,,,,,,,,,,,,,,,,,,,,,,,f,1,0.488245010376,,,,,,,,,,,,,,,,,,,,,,,,,,,,,,,,,,,,,,,,,,,,,,,,,,,,,,,,,,,,,,,,,,,,,,,,,,,,,,,,,,,,,,,,,,,1,5,4,60.31186191108887,Dissertation,2018_Jul_20_1543,4,
,,,,,,,,,,,,,,,,,,,0,0,0,0,,,,,,,,,,,,,,,,,,,,,,,,,,,,,,,,,,,,,,,,,,,,,,,,,,,,,,,,,,,,,,,,,,,,,,,,,,,,,,,,,,,,,,,,,,,,,,,,,,,,,,,,,,,,,,,,,,,,,,,,,,,,,,,,,,1,5,4,60.31186191108887,Dissertation,2018_Jul_20_1543,4,
,,,,,,,,,,,,,,,,,,,,,,,,,,,,,,,,,,,,,,,,,,,,,,,,,,,,,,,,,,,,,,space,19.1192090511,,,,,,,,,,,,,,,,,,,,,,,,,,,,,,,,,,,,,,,,,,,,,,,,,,,,,,,,,,,,,,,,,,,,,,,,,,,,,,,,,,,,,,,,,1,5,4,60.31186191108887,Dissertation,2018_Jul_20_1543,4,
,,,,,,,,,,,,,,,,,,,,,,,,,,,,,,,,,,,,,,,,,,,,,,,,,,,,,,,,,,,,,,,,space,27.4002819061,,,,,,,,,,,,,,,,,,,,,,,,,,,,,,,,,,,,,,,,,,,,,,,,,,,,,,,,,,,,,,,,,,,,,,,,,,,,,,,,,,,,,,,1,5,4,60.31186191108887,Dissertation,2018_Jul_20_1543,4,
congruent_left,f,1,Este es un ejemplo de las frases que verás a lo largo del experimento,Viste un ejemplo de una oración estimulo.,Verdadero,Falso,f,practice,,,,,,,,,,,,,,,,,,,0,0,0,0,0,0,0,0,,,,,,,,,,,,,,,,,,,,,,,,,,,,,,,,space,9.91470718384,1.50204515457,1.46211290359,1.50204515457,1.65607905388,1.60890817642,3.15812420845,0.951187849045,0.885807991028,4.1093120575,1.13696503639,1.0890109539,5.24627709389,0.85273194313,0.805745124817,6.09900903702,0.701899051666,0.639183044434,6.80090808868,0.868982076645,0.806073904037,7.66989016533,0.936247825623,0.871174097061,8.60613799095,0.985263109207,0.922186136246,9.59140110016,0.819289922714,0.756381034851,10.4106910229,0.567737102509,0.506618976593,10.9784281254,0.851499080658,0.784806013107,11.829927206,0.685112953186,0.637740135193,12.5150401592,0.7871530056,0.73642206192,13.3021931648,f,1,7.28921985626,,,,,,,,,,,,,,,,,,,,,,,,,,,,,,,,,,,,,,,,1,5,4,60.31186191108887,Dissertation,2018_Jul_20_1543,4,
congruent_right,j,1,A veces las oraciones serán muy largas,Algunas frases son largas.,Verdadero,Falso,f,practice,,,,,,,,,,,,,,,,,,,0,0,0,0,0,1,1,1,,,,,,,,,,,,,,,,,,,,,,,,,,,,,,,,,,0.996547937393,0.97087597847,0.996547937393,0.669469118118,0.62230682373,1.66601705551,0.718638896942,0.67413187027,2.38465595245,0.634238004684,0.587267875671,3.01889395714,0.686261177063,0.640276908875,3.7051551342,0.75217795372,0.69128203392,4.45733308792,0.750639915466,0.688373088837,5.20797300339,,,,,,,,,,,,,,,,,,,,,,f,1,6.83609604836,,,,,,,,,,,,,,,,,,,,,,,,,,,,,,,,,,,,,,,,1,5,4,60.31186191108887,Dissertation,2018_Jul_20_1543,4,
incongruent_left,f,0,A veces serán más cortas,Todas las frases son iguales.,Verdadero,Falso,j,practice,,,,,,,,,,,,,,,,,,,0,0,0,0,0,2,2,2,,,,,,,,,,,,,,,,,,,,,,,,,,,,,,,,,,0.831588983536,0.814512014389,0.831588983536,0.485178947449,0.454392910004,1.31676793098,0.517977952957,0.471922874451,1.83474588394,0.702785015106,0.673500061035,2.53753089905,0.550223112106,0.504864931107,3.08775401115,,,,,,,,,,,,,,,,,,,,,,,,,,,,j,1,2.12790799141,,,,,,,,,,,,,,,,,,,,,,,,,,,,,,,,,,,,,,,,1,5,4,60.31186191108887,Dissertation,2018_Jul_20_1543,4,
incongruent_right,j,0,Tu tarea es leer la frase de la manera más natural posible,No tienes que prestarle atención a la oración.,Verdadero,Falso,j,practice,,,,,,,,,,,,,,,,,,,0,0,0,0,0,3,3,3,,,,,,,,,,,,,,,,,,,,,,,,,,,,,,,,,,0.711248159409,0.675122022629,0.711248159409,0.584357976913,0.536593198776,1.29560613632,0.61877989769,0.570826053619,1.91438603401,0.718659162521,0.667771816254,2.63304519653,0.703222990036,0.652598142624,3.33626818657,0.549585819244,0.503325223923,3.88585400581,0.636690139771,0.589952945709,4.52254414558,0.750450849533,0.702859163284,5.27299499512,0.635236024857,0.570704936981,5.90823101997,0.603078126907,0.555837869644,6.51130914688,0.617346048355,0.571051120758,7.12865519524,0.652372837067,0.605137109756,7.7810280323,,,,,,,f,0,6.38720083237,,,,,,,,,,,,,,,,,,,,,,,,,,,,,,,,,,,,,,,,1,5,4,60.31186191108887,Dissertation,2018_Jul_20_1543,4,
single_left,f,0,Las preguntas que siguen cada oración a veces serán obvias y a veces serán más difíciles,La dificultad de cada pregunta varía.,Verdadero,Falso,f,practice,,,,,,,,,,,,,,,,,,,0,0,0,0,0,4,4,4,,,,,,,,,,,,,,,,,,,,,,,,,,,,,,,,,,0.630850791931,0.581722021103,0.630850791931,0.450963973999,0.366973161697,1.08181476593,0.501165151596,0.436928033829,1.58297991753,0.501311063766,0.436187028885,2.08429098129,0.517758846283,0.450054168701,2.60204982758,0.50173997879,0.437376976013,3.10378980637,0.584644079208,0.519463062286,3.68843388557,0.56916308403,0.505424022675,4.2575969696,0.584009885788,0.521842002869,4.84160685539,0.517857074738,0.435327768326,5.35946393013,0.569232940674,0.505354881287,5.9286968708,0.485210895538,0.422191143036,6.41390776634,0.666451215744,0.60263299942,7.08035898209,0.637320995331,0.572132110596,7.71767997742,f,1,2.27302193642,0.616628885269,0.552845954895,8.33430886269,0.48503613472,0.420480012894,8.81934499741,,,,,,,,,,,,,,,,,,,,,,,,,,,,,,,,,,1,5,4,60.31186191108887,Dissertation,2018_Jul_20_1543,4,
single_right,j,0,No pasa nada si tienes que adivinar la respuesta de vez en cuando,Es importante que no adivines.,Verdadero,Falso,j,practice,,,,,,,,,,,,,,,,,,,0,0,0,0,0,5,5,5,,,,,,,,,,,,,,,,,,,,,,,,,,,,,,,,,,0.766449213028,0.733251094818,0.766449213028,0.502243995667,0.438946962357,1.26869320869,0.584439992905,0.519262075424,1.8531332016,0.435084819794,0.37317609787,2.28821802139,0.417510032654,0.354809045792,2.70572805405,0.417695999146,0.351836919785,3.12342405319,0.416825056076,0.354568958282,3.54024910927,0.468802928925,0.402270078659,4.00905203819,0.484796047211,0.439018964767,4.4938480854,0.500806093216,0.438148021698,4.99465417862,0.435156822205,0.389487028122,5.42981100082,0.43313908577,0.367046833038,5.86295008659,0.485314130783,0.421541929245,6.34826421738,,,,j,1,5.18048000336,,,,,,,,,,,,,,,,,,,,,,,,,,,,,,,,,,,,,,,,1,5,4,60.31186191108887,Dissertation,2018_Jul_20_1543,4,
,,,,,,,,,,,,,,,,,,,,,,,,,,,0,0,0,0,,,,,,,,,,,,,,,,,,,,,,,,,,,,,,,,,,,,,,,,,,,,,,,,,,,,,,,,,,,,,,,,,,,,,,,,,,,,,,,,,,,,,,,,,,,,,,,,,,,,,,,,,,,,,,,,,,,,,,,,,,1,5,4,60.31186191108887,Dissertation,2018_Jul_20_1543,4,
,,,,,,,,,,,,,,,,,,,,,,,,,,,,,,,,,,,,,,,,,,,,,,,,,,,,,,,,,,,,,,,,,,,,,,,,,,,,,,,,,,,,,,,,,,,,,,,,,,,,,,,,,,,,,,,,,,,,,,,space,14.9628741741,,,,,,,,,,,,,,,,,,,,,,,,,,,,,,,,1,5,4,60.31186191108887,Dissertation,2018_Jul_20_1543,4,
,,None,,,Verdadero,Falso,j,None,incongruent_left,Mi estación preferida es el verano,None,None,None,None,f,None,None,Me gusta el invierno más que las otras estaciones.,,,,,,,,,,,,,,,,,0,0,0,0,0,0,0,1,,,,,,,,,,,,,,,,,,,,,,,,,,0.786879062653,0.765661001205,0.786879062653,0.483596086502,0.437961816788,1.27047514915,0.50150680542,0.454740047455,1.77198195457,0.619148015976,0.573067903519,2.39112997055,0.785168170929,0.739286899567,3.17629814148,0.584303855896,0.53809595108,3.76060199738,,,,,,,,,,,,,,,,,,,,,,,,,,,,,,,,,,,,space,9.16406416893,f,1,0.736372947693,j,1,5.56969499588,None,,,,,,,,,,,,,,,,,,,,,,,1,5,4,60.31186191108887,Dissertation,2018_Jul_20_1543,4,
,,None,,,Verdadero,Falso,j,None,congruent_left,El chico corrió en el parque ayer,None,None,None,None,f,None,None,El chico no hizo nada ayer.,,,,,,,,,,,,,,,,,0,0,0,0,0,1,1,0,,,,,,,,,,,,,,,,,,,,,,,,,,0.651634931564,0.625818967819,0.651634931564,0.417449951172,0.372663021088,1.06908488274,0.567749023438,0.523093938828,1.63683390617,0.517897129059,0.472276926041,2.15473103523,0.468716859818,0.405033826828,2.62344789505,0.4842710495,0.438771009445,3.10771894455,0.484503030777,0.439416885376,3.59222197533,,,,,,,,,,,,,,,,,,,,,,,,,,,,,,,,,,,f,1,0.758718013763,j,1,2.3951728344,None,,,,,,,,,,,,,,,,,,,,,,,1,5,4,60.31186191108887,Dissertation,2018_Jul_20_1543,4,
,,None,,,Verdadero,Falso,f,None,incongruent_right,Estudio mucho durante la semana para poder divertirme durante el fin de semana,None,None,None,None,j,None,None,No voy a la biblioteca mucho los fines de semana.,,,,,,,,,,,,,,,,,0,0,0,0,0,2,2,2,,,,,,,,,,,,,,,,,,,,,,,,,,0.650809049606,0.603785037994,0.650809049606,0.416372060776,0.351840019226,1.06718111038,0.453120946884,0.388321876526,1.52030205727,0.450933933258,0.389442920685,1.97123599052,0.501529932022,0.435210943222,2.47276592255,0.501383066177,0.439825057983,2.97414898872,0.517977952957,0.455971956253,3.49212694168,0.484831094742,0.423682928085,3.97695803642,0.566705942154,0.504657030106,4.54366397858,0.517817974091,0.450598955154,5.06148195267,0.719506978989,0.671984910965,5.78098893166,0.485372066498,0.418537855148,6.26636099815,0.450563907623,0.389185190201,6.71692490578,,,,,,,,,,,,,,,,,j,1,1.52509212494,f,1,7.96143388748,None,,,,,,,,,,,,,,,,,,,,,,,1,5,4,60.31186191108887,Dissertation,2018_Jul_20_1543,4,
,,None,,,Verdadero,Falso,f,None,single_right,La madre de Julieta vive en Filadelfia así que Julieta la visita mucho,None,None,None,None,j,None,None,Julieta y su madre se ven mucho.,,,,,,,,,,,,,,,,,0,0,0,0,0,3,3,4,,,,,,,,,,,,,,,,,,,,,,,,,,0.584160089493,0.542824029922,0.584160089493,0.468105077744,0.405417203903,1.05226516724,0.701843976974,0.639308929443,1.75410914421,0.500594854355,0.42066693306,2.25470399857,0.652354955673,0.574058771133,2.90705895424,0.667231082916,0.554208040237,3.57429003716,0.469116926193,0.390477895737,4.04340696335,0.534890174866,0.472045898438,4.57829713821,0.567349910736,0.505136966705,5.14564704895,0.501642942429,0.420520067215,5.64728999138,1.06873416901,1.00554203987,6.71602416039,0.552477836609,0.488593101501,7.26850199699,0.601871967316,0.53962802887,7.87037396431,,,,,,,,,,,,,,,,,j,1,0.755692005157,f,1,2.77800011635,None,,,,,,,,,,,,,,,,,,,,,,,1,5,4,60.31186191108887,Dissertation,2018_Jul_20_1543,4,
,,None,,,Verdadero,Falso,j,None,single_left,A Iván le gusta cocinar y toma clases de gastronomía,None,None,None,None,f,None,None,Iván cocina mucho.,,,,,,,,,,,,,,,,,0,0,0,0,0,4,4,5,,,,,,,,,,,,,,,,,,,,,,,,,,0.585057973862,0.52419090271,0.585057973862,0.43491101265,0.388404846191,1.01996898651,0.634459018707,0.573003053665,1.65442800522,0.417473077774,0.369691133499,2.07190108299,0.419400930405,0.368299007416,2.4913020134,0.450443029404,0.406389951706,2.9417450428,0.467218875885,0.420488119125,3.40896391869,0.451832056046,0.404929876328,3.86079597473,0.417456150055,0.37228012085,4.27825212479,0.418470859528,0.372936964035,4.69672298431,,,,,,,,,,,,,,,,,,,,,,,,,,f,1,0.83572101593,f,0,1.69109606743,None,,,,,,,,,,,,,,,,,,,,,,,1,5,4,60.31186191108887,Dissertation,2018_Jul_20_1543,4,
,,None,,,Verdadero,Falso,f,None,congruent_right,Me gusta vivir en la ciudad de Washington porque tiene mucha historia,None,None,None,None,j,None,None,Estoy contento viviendo en D.C.,,,,,,,,,,,,,,,,,0,0,0,0,0,5,5,3,,,,,,,,,,,,,,,,,,,,,,,,,,0.417680025101,0.375753879547,0.417680025101,0.418325901031,0.351734876633,0.836005926132,0.433683872223,0.369696140289,1.26968979836,0.435500144958,0.371365070343,1.70518994331,0.418192863464,0.356393098831,2.12338280678,0.366003990173,0.302757978439,2.48938679695,0.452804088593,0.388957977295,2.94219088554,0.417896032333,0.356295108795,3.36008691788,0.467720031738,0.405761957169,3.82780694962,0.484740018845,0.418673038483,4.31254696846,0.44953584671,0.383363962173,4.76208281517,0.436115026474,0.372016191483,5.19819784164,,,,,,,,,,,,,,,,,,,,j,1,0.652168989182,f,1,2.09110403061,None,,,,,,,,,,,,,,,,,,,,,,,1,5,4,60.31186191108887,Dissertation,2018_Jul_20_1543,4,
,,,,,,,,,,,,,,,,,,,,,,,,,,,,,,,,,,,0,0,0,0,,,,,,,,,,,,,,,,,,,,,,,,,,,,,,,,,,,,,,,,,,,,,,,,,,,,,,,,,,,,,,,,,,,,,,,,,,,,,,,,,,,,,,,,,,,,,,,,,,,,,,,,,,,,,,,,,,1,5,4,60.31186191108887,Dissertation,2018_Jul_20_1543,4,
,,,,,,,,,,,,,,,,,,,,,,,,,,,,,,,,,,,,,,,,,,,,,,,,,,,,,,,,,,,,,,,,,,,,,,,,,,,,,,,,,,,,,,,,,,,,,,,,,,,,,,,,,,,,,,,,,,,,,,,,,,,,,,,,,,space,8.96723198891,,,,,,,,,,,,,,,,,,,,,1,5,4,60.31186191108887,Dissertation,2018_Jul_20_1543,4,
,,1,,,Verdadero,Falso,j,B,congruent_left,Los novios tomaron vino durante la fiesta,0,0,0,0,f,0,247,Los novios sólo toman cerveza.,,,,,,,,,,,,,,,,,,,,,,,,,0,0,0,0,0,0,0,46,,,,,,,,,,,,,,,,,,0.067104101181,0.0160160064697,0.067104101181,0.46701002121,0.420274972916,0.534114122391,0.418598890305,0.355982065201,0.952713012695,0.70147395134,0.653609991074,1.65418696404,0.50079703331,0.454161167145,2.15498399734,0.534920930862,0.470148801804,2.68990492821,0.467702150345,0.420105218887,3.15760707855,,,,,,,,,,,,,,,,,,,,,,,,,,,,,,,,,,,f,1,0.638172149658,j,1,3.87866091728,,,,None,None,,,,,,,,,,,,,,,,,,,1,5,4,60.31186191108887,Dissertation,2018_Jul_20_1543,4,
,,1,,,Verdadero,Falso,f,B,congruent_left,Carlos solo cultiva verduras en el jardín que tiene en casa,0,0,0,0,f,0,235,Carlos no compra muchas verduras en el supermercado.,,,,,,,,,,,,,,,,,,,,,,,,,0,0,0,0,0,1,1,34,,,,,,,,,,,,,,,,,,0.131940126419,0.0979578495026,0.131940126419,0.519222974777,0.455038070679,0.651163101196,0.41677904129,0.372325897217,1.06794214249,0.40140080452,0.354552030563,1.46934294701,0.484141111374,0.437600135803,1.95348405838,0.418932914734,0.37181186676,2.37241697311,0.449506998062,0.385954856873,2.82192397118,0.45259809494,0.39030790329,3.27452206612,0.684638023376,0.623292922974,3.95916008949,0.418129920959,0.371093034744,4.37729001045,0.401397943497,0.354834794998,4.77868795395,,,,,,,,,,,,,,,,,,,,,,,f,1,0.873104095459,f,1,4.68529415131,,,,None,None,,,,,,,,,,,,,,,,,,,1,5,4,60.31186191108887,Dissertation,2018_Jul_20_1543,4,
,,0,,,Verdadero,Falso,f,B,single_right,Después de preparar el desayuno Pedro limpia bien la cocina,0,0,0,1,j,0,238,Pedro no deja la cocina sucia.,,,,,,,,,,,,,,,,,,,,,,,,,0,0,0,0,0,2,2,37,,,,,,,,,,,,,,,,,,0.416738033295,0.381891012192,0.416738033295,0.416304826736,0.36963391304,0.833042860031,0.369035005569,0.321696043015,1.2020778656,0.418204069138,0.355543136597,1.62028193474,0.416620969772,0.371521949768,2.03690290451,0.418253898621,0.354634046555,2.45515680313,0.401612043381,0.33597612381,2.85676884651,0.534198045731,0.472210884094,3.39096689224,0.450531959534,0.370670080185,3.84149885178,0.385881185532,0.306515932083,4.22738003731,,,,,,,,,,,,,,,,,,,,,,,,,,j,1,0.708885908127,f,1,4.16206884384,,,,None,None,,,,,,,,,,,,,,,,,,,1,5,4,60.31186191108887,Dissertation,2018_Jul_20_1543,4,
,,0,,,Verdadero,Falso,f,B,incongruent_left,Los planos del arquitecto tienen un diseño muy creativo ,0,0,1,0,f,0,251,El arquitecto es muy bueno y creativo.,,,,,,,,,,,,,,,,,,,,,,,,,0,0,0,0,0,3,3,50,,,,,,,,,,,,,,,,,,0.400289058685,0.361822843552,0.400289058685,0.382855892181,0.336712837219,0.783144950867,0.369052171707,0.317816019058,1.15219712257,0.451441764832,0.402276992798,1.60363888741,0.433335065842,0.387730121613,2.03697395325,0.43448805809,0.386692047119,2.47146201134,0.41823887825,0.372546195984,2.88970088959,0.434896230698,0.372717142105,3.32459712029,0.567169904709,0.521587133408,3.89176702499,,,,,,,,,,,,,,,,,,,,,,,,,,,,,f,1,0.854205131531,f,1,2.34260487556,,,,None,None,,,,,,,,,,,,,,,,,,,1,5,4,60.31186191108887,Dissertation,2018_Jul_20_1543,4,
,,0,,,Verdadero,Falso,j,B,single_left,Siempre que da un concierto la artista canta sus canciones más conocidas,0,0,0,1,f,0,240,La artista siempre canta sus canciones recien salidas.,,,,,,,,,,,,,,,,,,,,,,,,,0,0,0,0,0,4,4,39,,,,,,,,,,,,,,,,,,0.467621803284,0.420207023621,0.467621803284,0.400529146194,0.33846116066,0.868150949478,0.368027925491,0.302008152008,1.23617887497,0.334272146225,0.267796993256,1.57045102119,0.300421953201,0.239432811737,1.8708729744,0.317281007767,0.253520011902,2.18815398216,0.535130977631,0.468563079834,2.72328495979,0.300813913345,0.237583875656,3.02409887314,0.302066087723,0.23962020874,3.32616496086,0.315542936325,0.221513986588,3.64170789719,0.517429113388,0.436427116394,4.15913701057,0.385061979294,0.319809913635,4.54419898987,,,,,,,,,,,,,,,,,,,,f,1,0.857903003693,f,0,3.74819803238,,,,None,None,,,,,,,,,,,,,,,,,,,1,5,4,60.31186191108887,Dissertation,2018_Jul_20_1543,4,
,,1,,,Verdadero,Falso,f,B,congruent_right,En el salón de conciertos resonaba la música de la banda ,0,0,0,0,j,0,249,Se podía escuchar la música en todo el salón.,,,,,,,,,,,,,,,,,,,,,,,,,0,0,0,0,0,5,5,48,,,,,,,,,,,,,,,,,,0.116372108459,0.0523159503937,0.116372108459,0.451011896133,0.38662481308,0.567384004593,0.335494995117,0.273988962173,0.90287899971,0.283978939056,0.205137968063,1.18685793877,0.334616184235,0.287999868393,1.521474123,0.316645860672,0.251187086105,1.83811998367,0.518893957138,0.472939014435,2.35701394081,0.384366035461,0.341070890427,2.74137997627,0.332847118378,0.286425113678,3.07422709465,0.335381984711,0.273034095764,3.40960907936,0.350254058838,0.286523103714,3.7598631382,,,,,,,,,,,,,,,,,,,,,,,j,1,0.569895982742,f,1,2.44077014923,,,,None,None,,,,,,,,,,,,,,,,,,,1,5,4,60.31186191108887,Dissertation,2018_Jul_20_1543,4,
,,1,,,Verdadero,Falso,j,B,congruent_right,Mientras el maestro tocaba el violín resonaba por todo el salón,1,1,0,0,j,0,25,El maestro tocaba el piano.,,,,,,,,,,,,,,,,,,,,,,,,,0,0,0,0,0,6,6,4,,,,,,,,,,,,,,,,,,0.100222110748,0.0384848117828,0.100222110748,0.567376852036,0.47163105011,0.667598962784,0.334805011749,0.237404108047,1.00240397453,0.317874193192,0.222147941589,1.32027816772,0.350587844849,0.271487951279,1.67086601257,0.350739955902,0.286803007126,2.02160596848,0.38458609581,0.333956956863,2.40619206429,0.317456960678,0.220597982407,2.72364902496,0.467627048492,0.38599896431,3.19127607346,0.368335962296,0.3217689991,3.55961203575,0.384007930756,0.317950963974,3.94361996651,,,,,,,,,,,,,,,,,,,,,,,j,1,0.506223917007,j,1,2.35850906372,,,,None,None,,,,,,,,,,,,,,,,,,,1,5,4,60.31186191108887,Dissertation,2018_Jul_20_1543,4,
,,1,,,Verdadero,Falso,f,B,congruent_right,Después de que corrí el maratón no me parecía tan imposible,1,1,0,0,j,0,21,Me sentí mejor corriendo el maratón que anticipaba.,,,,,,,,,,,,,,,,,,,,,,,,,0,0,0,0,0,7,7,0,,,,,,,,,,,,,,,,,,0.379354953766,0.345658063889,0.379354953766,0.351122140884,0.272490978241,0.73047709465,0.351934909821,0.301581859589,1.08241200447,0.333179950714,0.287261009216,1.41559195518,0.283303976059,0.236702203751,1.69889593124,0.2850689888,0.237639904022,1.98396492004,0.317296028137,0.271507024765,2.30126094818,0.317142009735,0.270009040833,2.61840295792,0.350450992584,0.284728050232,2.9688539505,0.284610033035,0.236224889755,3.25346398354,0.467234134674,0.420404911041,3.72069811821,,,,,,,,,,,,,,,,,,,,,,,j,1,0.603716135025,f,1,8.19139504433,,,,None,None,,,,,,,,,,,,,,,,,,,1,5,4,60.31186191108887,Dissertation,2018_Jul_20_1543,4,
,,0,,,Verdadero,Falso,f,A,single_right,The girl,0,0,0,1,j,0,302,a,,,,,,,,,,,,,,,,,,,,,,,,,0,0,0,0,0,8,8,61,,,,,,,,,,,,,,,,,,,,,,,,,,,,,,,,,,,,,,,,,,,,,,,,,,,,,,,,,,,,,,,,,,,,,,,,,j,1,0.688988924026,None,0,,,,,None,None,,,,,,,,,,,,,,,,,,,1,5,4,60.31186191108887,Dissertation,2018_Jul_20_1543,4,
,,1,,,Verdadero,Falso,j,B,congruent_right,Cuando mi hermana maneja el carro mi papá camina a la oficina,0,0,0,0,j,0,237,Mi hermana tiene su propio carro.,,,,,,,,,,,,,,,,,,,,,,,,,0,0,0,0,0,9,9,36,,,,,,,,,,,,,,,,,,0.232511043549,0.191143035889,0.232511043549,0.568096876144,0.502691030502,0.800607919693,0.368842124939,0.305187940598,1.16945004463,0.449534893036,0.385197877884,1.61898493767,0.484586000443,0.42014503479,2.10357093811,0.385862112045,0.338623046875,2.48943305016,0.501214981079,0.452904939651,2.99064803123,0.451418876648,0.406594991684,3.44206690788,0.467365980148,0.417974948883,3.90943288803,0.451636075974,0.405881881714,4.361068964,0.601130962372,0.555499076843,4.96219992638,0.349577903748,0.30282998085,5.31177783012,,,,,,,,,,,,,,,,,,,,j,1,0.872575998306,j,1,4.50036907196,,,,None,None,,,,,,,,,,,,,,,,,,,1,5,4,60.31186191108887,Dissertation,2018_Jul_20_1543,4,
,,0,,,Verdadero,Falso,f,A,single_left,The girl,0,0,0,1,f,0,301,a,,,,,,,,,,,,,,,,,,,,,,,,,0,0,0,0,0,10,10,60,,,,,,,,,,,,,,,,,,,,,,,,,,,,,,,,,,,,,,,,,,,,,,,,,,,,,,,,,,,,,,,,,,,,,,,,,f,1,0.536919116974,None,0,,,,,None,None,,,,,,,,,,,,,,,,,,,1,5,4,60.31186191108887,Dissertation,2018_Jul_20_1543,4,
,,0,,,Verdadero,Falso,f,A,incongruent_left,The girl,0,0,1,0,f,0,313,a,,,,,,,,,,,,,,,,,,,,,,,,,0,0,0,0,0,11,11,72,,,,,,,,,,,,,,,,,,,,,,,,,,,,,,,,,,,,,,,,,,,,,,,,,,,,,,,,,,,,,,,,,,,,,,,,,f,1,0.840700864792,None,0,,,,,None,None,,,,,,,,,,,,,,,,,,,1,5,4,60.31186191108887,Dissertation,2018_Jul_20_1543,4,
,,0,,,Verdadero,Falso,j,B,incongruent_right,Mientras el novio pagaba el diamante se le cayó al piso,1,1,1,0,j,1,26,La esposa dejó caer el diamante al piso.,,,,,,,,,,,,,,,,,,,,,,,,,0,0,0,0,0,12,12,5,,,,,,,,,,,,,,,,,,0.148783922195,0.115478038788,0.148783922195,0.552329063416,0.505527973175,0.701112985611,0.284349918365,0.238224029541,0.985462903976,0.399439096451,0.336309194565,1.38490200043,0.352201938629,0.304728984833,1.73710393906,0.46825504303,0.423221826553,2.20535898209,0.433326005936,0.385383844376,2.63868498802,0.401355981827,0.354068040848,3.04004096985,0.36717414856,0.320614814758,3.40721511841,0.434545993805,0.384541034698,3.84176111221,0.36835193634,0.289496183395,4.21011304855,,,,,,,,,,,,,,,,,,,,,,,j,1,0.607419967651,j,1,4.5165951252,,,,None,None,,,,,,,,,,,,,,,,,,,1,5,4,60.31186191108887,Dissertation,2018_Jul_20_1543,4,
,,0,,,Verdadero,Falso,j,B,incongruent_left,Después de que hablaron el helado se derritió rápido,0,1,1,0,f,0,101,Hacía mucho frío.,,,,,,,,,,,,,,,,,,,,,,,,,0,0,0,0,0,13,13,20,,,,,,,,,,,,,,,,,,0.0631508827209,0.00392317771912,0.0631508827209,0.955651044846,0.889668941498,1.01880192757,0.4005651474,0.319547891617,1.41936707497,0.418401956558,0.351150989532,1.83776903152,0.351212024689,0.271725893021,2.18898105621,0.300873994827,0.218101024628,2.48985505104,0.368413925171,0.306612014771,2.85826897621,0.483281135559,0.402535915375,3.34155011177,0.369268894196,0.318512916565,3.71081900597,,,,,,,,,,,,,,,,,,,,,,,,,,,,,f,1,0.535176038742,j,1,4.49908614159,,,,None,None,,,,,,,,,,,,,,,,,,,1,5,4,60.31186191108887,Dissertation,2018_Jul_20_1543,4,
,,1,,,Verdadero,Falso,f,B,congruent_left,Este año cuando gritaron el grito sonó hasta por las montañas,1,1,0,0,f,0,24,Se escuchó el grito desde lejos.,,,,,,,,,,,,,,,,,,,,,,,,,0,0,0,0,0,14,14,3,,,,,,,,,,,,,,,,,,0.567646980286,0.529366970062,0.567646980286,0.267400979996,0.206622838974,0.835047960281,0.417565107346,0.35137796402,1.25261306763,0.36706495285,0.320759057999,1.61967802048,0.401798009872,0.355268955231,2.02147603035,0.399961948395,0.354207992554,2.42143797874,0.419073104858,0.372452020645,2.8405110836,0.451029062271,0.388378858566,3.29154014587,0.349370956421,0.304162979126,3.64091110229,0.336149930954,0.288645029068,3.97706103325,0.333987951279,0.288264989853,4.31104898453,,,,,,,,,,,,,,,,,,,,,,,f,1,0.555215835571,f,1,2.77951192856,,,,None,None,,,,,,,,,,,,,,,,,,,1,5,4,60.31186191108887,Dissertation,2018_Jul_20_1543,4,
,,0,,,Verdadero,Falso,f,B,incongruent_right,Siempre que la niña juega la pelota le da por la cabeza,0,1,1,0,j,0,104,La niña es un poco torpe.,,,,,,,,,,,,,,,,,,,,,,,,,0,0,0,0,0,15,15,21,,,,,,,,,,,,,,,,,,0.40077495575,0.361956119537,0.40077495575,0.266932964325,0.220559120178,0.667707920074,0.25049495697,0.204347133636,0.918202877045,0.249877929688,0.199944019318,1.16808080673,0.251942157745,0.204396009445,1.42002296448,0.400040864944,0.352447986603,1.82006382942,0.468821048737,0.422255039215,2.28888487816,0.41814494133,0.354723930359,2.70702981949,0.334052085876,0.284790039062,3.04108190536,0.400535106659,0.355856895447,3.44161701202,0.367919921875,0.322483062744,3.8095369339,0.351577043533,0.288352966309,4.16111397743,,,,,,,,,,,,,,,,,,,,j,1,0.51878285408,f,1,1.55870985985,,,,None,None,,,,,,,,,,,,,,,,,,,1,5,4,60.31186191108887,Dissertation,2018_Jul_20_1543,4,
,,0,,,Verdadero,Falso,j,B,incongruent_left,La maestra dejó la bebida que compró en su cartera durante la clase,0,1,1,0,f,0,113,La maestra tomaba la bebida mientras daba la lección.,,,,,,,,,,,,,,,,,,,,,,,,,0,0,0,0,0,16,16,26,,,,,,,,,,,,,,,,,,0.617371082306,0.566639184952,0.617371082306,0.2504799366,0.18889093399,0.867851018906,0.334414958954,0.271353960037,1.20226597786,0.334540128708,0.285128116608,1.53680610657,0.366944074631,0.322118997574,1.9037501812,0.36786198616,0.304949045181,2.27161216736,0.400228023529,0.336021900177,2.67184019089,0.334857940674,0.284426212311,3.00669813156,0.317842960358,0.271349906921,3.32454109192,0.266426086426,0.21956205368,3.59096717834,0.318234920502,0.273347854614,3.90920209885,0.602160930634,0.535577774048,4.51136302948,0.433138132095,0.36879992485,4.94450116158,,,,,,,,,,,,,,,,,f,1,0.651896953583,j,1,4.34938192368,,,,None,None,,,,,,,,,,,,,,,,,,,1,5,4,60.31186191108887,Dissertation,2018_Jul_20_1543,4,
,,1,,,Verdadero,Falso,f,B,congruent_right,Después de hacer la tarea Pilar volvió a jugar videojuegos,0,0,0,0,j,0,241,A Pilar le gustan los videojuegos.,,,,,,,,,,,,,,,,,,,,,,,,,0,0,0,0,0,17,17,40,,,,,,,,,,,,,,,,,,0.718002080917,0.680447101593,0.718002080917,0.33366394043,0.287745952606,1.05166602135,0.334187984467,0.288906097412,1.38585400581,0.333758115768,0.269747018814,1.71961212158,0.351959943771,0.302036046982,2.07157206535,0.349050998688,0.303654909134,2.42062306404,0.518179893494,0.469971895218,2.93880295753,0.534462213516,0.485790967941,3.47326517105,0.36865901947,0.317709922791,3.84192419052,0.484279870987,0.436630010605,4.32620406151,,,,,,,,,,,,,,,,,,,,,,,,,,j,1,0.54060292244,f,1,1.69014906883,,,,None,None,,,,,,,,,,,,,,,,,,,1,5,4,60.31186191108887,Dissertation,2018_Jul_20_1543,4,
,,0,,,Verdadero,Falso,j,B,incongruent_right,Después de que la arquitecta empezó los planos se volvieron más sencillos,1,1,1,0,j,1,22,Los planos siempre fueron muy sencillos.,,,,,,,,,,,,,,,,,,,,,,,,,0,0,0,0,0,18,18,1,,,,,,,,,,,,,,,,,,0.584167003632,0.542164087296,0.584167003632,0.250264883041,0.189464092255,0.834431886673,0.635246992111,0.573617935181,1.46967887878,0.350321054459,0.287305116653,1.81999993324,0.316765069962,0.254371881485,2.1367650032,0.285140991211,0.220731019974,2.42190599442,0.334600925446,0.272787094116,2.75650691986,0.300462961197,0.237259864807,3.05696988106,0.36682510376,0.304327964783,3.42379498482,0.318561077118,0.235851049423,3.74235606194,0.284332990646,0.222311973572,4.02668905258,0.451282024384,0.388716936111,4.47797107697,,,,,,,,,,,,,,,,,,,,j,1,0.505402088165,j,1,2.38982486725,,,,None,None,,,,,,,,,,,,,,,,,,,1,5,4,60.31186191108887,Dissertation,2018_Jul_20_1543,4,
,,0,,,Verdadero,Falso,f,A,single_left,The girl,0,0,0,1,f,0,314,a,,,,,,,,,,,,,,,,,,,,,,,,,0,0,0,0,0,19,19,73,,,,,,,,,,,,,,,,,,,,,,,,,,,,,,,,,,,,,,,,,,,,,,,,,,,,,,,,,,,,,,,,,,,,,,,,,f,1,0.617027997971,None,0,,,,,None,None,,,,,,,,,,,,,,,,,,,1,5,4,60.31186191108887,Dissertation,2018_Jul_20_1543,4,
,,0,,,Verdadero,Falso,j,B,incongruent_right,Cuando Dora compró la comida se le quedó en el mercado,1,1,1,0,j,1,30,Dora salió del mercado con la comida.,,,,,,,,,,,,,,,,,,,,,,,,,0,0,0,0,0,20,20,9,,,,,,,,,,,,,,,,,,0.836905002594,0.8032310009,0.836905002594,0.384752988815,0.339359045029,1.22165799141,0.334010124207,0.288586139679,1.55566811562,0.434429883957,0.386189222336,1.99009799957,0.36695098877,0.321578979492,2.35704898834,0.367861032486,0.322838068008,2.72491002083,0.333055019379,0.286194801331,3.05796504021,0.418549060822,0.354948997498,3.47651410103,0.451910972595,0.401694059372,3.92842507362,0.333266973495,0.286747932434,4.26169204712,0.335034132004,0.271007061005,4.59672617912,,,,,,,,,,,,,,,,,,,,,,,j,1,0.60303401947,j,1,2.91313791275,,,,None,None,,,,,,,,,,,,,,,,,,,1,5,4,60.31186191108887,Dissertation,2018_Jul_20_1543,4,
,,1,,,Verdadero,Falso,f,A,congruent_left,The girl,0,0,0,0,f,0,307,a,,,,,,,,,,,,,,,,,,,,,,,,,0,0,0,0,0,21,21,66,,,,,,,,,,,,,,,,,,,,,,,,,,,,,,,,,,,,,,,,,,,,,,,,,,,,,,,,,,,,,,,,,,,,,,,,,f,1,0.62379693985,None,0,,,,,None,None,,,,,,,,,,,,,,,,,,,1,5,4,60.31186191108887,Dissertation,2018_Jul_20_1543,4,
,,0,,,Verdadero,Falso,f,A,single_right,The girl,0,0,0,1,j,0,310,a,,,,,,,,,,,,,,,,,,,,,,,,,0,0,0,0,0,22,22,69,,,,,,,,,,,,,,,,,,,,,,,,,,,,,,,,,,,,,,,,,,,,,,,,,,,,,,,,,,,,,,,,,,,,,,,,,j,1,0.385293006897,None,0,,,,,None,None,,,,,,,,,,,,,,,,,,,1,5,4,60.31186191108887,Dissertation,2018_Jul_20_1543,4,
,,0,,,Verdadero,Falso,f,B,incongruent_right,Cuando mi madre ayudaba la ropa salía de la lavadora manchada,0,1,1,0,j,0,108,Mi madre arruinó mucha ropa. ,,,,,,,,,,,,,,,,,,,,,,,,,0,0,0,0,0,23,23,23,,,,,,,,,,,,,,,,,,0.632068872452,0.595062017441,0.632068872452,0.301213026047,0.255096197128,0.933281898499,0.316231012344,0.253322839737,1.24951291084,0.302154064178,0.254619121552,1.55166697502,0.267410039902,0.204617977142,1.81907701492,0.485136985779,0.435441970825,2.3042140007,0.350653886795,0.304465055466,2.6548678875,0.46812915802,0.422101974487,3.12299704552,0.350206851959,0.301223039627,3.47320389748,0.316998004913,0.25137591362,3.79020190239,0.368741989136,0.32114315033,4.15894389153,,,,,,,,,,,,,,,,,,,,,,,j,1,0.6052069664,f,1,4.53318595886,,,,None,None,,,,,,,,,,,,,,,,,,,1,5,4,60.31186191108887,Dissertation,2018_Jul_20_1543,4,
,,0,,,Verdadero,Falso,j,B,incongruent_left,La arquitecta puso los planos que sus compañeros le dejaron en su oficina encima de la mesa para verlos bien,1,1,1,0,f,1,35,La arquitecta sacó los planos de su bolsa.,,,,,,,,,,,,,,,,,,,,,,,,,0,0,0,0,0,24,24,14,,,,,,,,,,,,,,,,,,0.568504810333,0.51478099823,0.568504810333,0.332813978195,0.25287604332,0.901318788528,0.302670001984,0.22124004364,1.20398879051,0.384289979935,0.305202960968,1.58827877045,0.383253097534,0.303905963898,1.97153186798,0.450889110565,0.370031118393,2.42242097855,0.501621007919,0.436650037766,2.92404198647,0.452042818069,0.388750076294,3.37608480453,0.434831142426,0.355376005173,3.81091594696,0.451128959656,0.369324922562,4.26204490662,0.601197957993,0.520606040955,4.86324286461,0.502012014389,0.42246389389,5.365254879,0.634450912476,0.554885149002,5.99970579147,0.584912061691,0.505516052246,6.58461785316,,,,0.349802970886,0.26775598526,6.93442082405,0.436131954193,0.372901916504,7.37055277824,,,,,f,1,0.820970058441,j,1,3.782984972,,,,None,None,0.316006183624,0.233675956726,7.68655896187,0.285607814789,0.217777013779,7.97216677666,0.266962051392,0.188030004501,8.23912882805,0.384500980377,0.288493871689,8.62362980843,,,,,,,1,5,4,60.31186191108887,Dissertation,2018_Jul_20_1543,4,
,,1,,,Verdadero,Falso,f,A,congruent_left,The girl,0,0,0,0,f,0,311,a,,,,,,,,,,,,,,,,,,,,,,,,,0,0,0,0,0,25,25,70,,,,,,,,,,,,,,,,,,,,,,,,,,,,,,,,,,,,,,,,,,,,,,,,,,,,,,,,,,,,,,,,,,,,,,,,,f,1,0.568506002426,None,0,,,,,None,None,,,,,,,,,,,,,,,,,,,1,5,4,60.31186191108887,Dissertation,2018_Jul_20_1543,4,
,,0,,,Verdadero,Falso,f,B,single_left,La estudiante lista adivinó la respuesta correcta primero,0,0,0,1,f,0,248,La estudiante fue la primera en responder. ,,,,,,,,,,,,,,,,,,,,,,,,,0,0,0,0,0,26,26,47,,,,,,,,,,,,,,,,,,0.552420854568,0.52050614357,0.552420854568,0.316169977188,0.27118897438,0.868590831757,0.28497505188,0.238094806671,1.15356588364,0.433866977692,0.386744976044,1.58743286133,0.785721063614,0.739081144333,2.37315392494,0.435067892075,0.388607978821,2.80822181702,0.466780185699,0.420399904251,3.27500200272,0.402153968811,0.355345964432,3.67715597153,,,,,,,,,,,,,,,,,,,,,,,,,,,,,,,,f,1,0.454118013382,f,1,4.33106803894,,,,None,None,,,,,,,,,,,,,,,,,,,1,5,4,60.31186191108887,Dissertation,2018_Jul_20_1543,4,
,,0,,,Verdadero,Falso,j,B,incongruent_left,La cantante colocó el micrófono que usó en el escenario en su lugar después del concierto,1,1,1,0,f,1,31,La cantante no usó un micrófono durante el show.,,,,,,,,,,,,,,,,,,,,,,,,,0,0,0,0,0,27,27,10,,,,,,,,,,,,,,,,,,0.615950107574,0.567330121994,0.615950107574,0.285740852356,0.220992088318,0.90169095993,0.25066113472,0.18821811676,1.15235209465,0.266634941101,0.200403928757,1.41898703575,0.468305110931,0.404671192169,1.88729214668,0.317873954773,0.254868030548,2.20516610146,0.366585016251,0.303614854813,2.57175111771,0.418694019318,0.355568170547,2.99044513702,0.250826835632,0.187803983688,3.24127197266,0.26645898819,0.203204870224,3.50773096085,0.251646995544,0.18964600563,3.75937795639,0.651396989822,0.589977025986,4.41077494621,0.317852973938,0.254920959473,4.72862792015,0.333800077438,0.254870891571,5.06242799759,,,,0.568400144577,0.488470077515,5.63082814217,0.383809804916,0.317855834961,6.01463794708,,,,,f,1,0.587686061859,j,1,1.87280011177,,,,None,None,,,,,,,,,,,,,,,,,,,1,5,4,60.31186191108887,Dissertation,2018_Jul_20_1543,4,
,,0,,,Verdadero,Falso,j,B,incongruent_right,Amalia puso el jamón que sus hermanos dejaron en los platos en el refrigerador después de que comieron,1,1,1,0,j,1,34,Los hermanos ordenaron la mesa después de comer. ,,,,,,,,,,,,,,,,,,,,,,,,,0,0,0,0,0,28,28,13,,,,,,,,,,,,,,,,,,0.215804100037,0.159706115723,0.215804100037,0.417591810226,0.338415145874,0.633395910263,0.28435921669,0.220468997955,0.917755126953,0.300737857819,0.237294912338,1.21849298477,0.31743311882,0.254623174667,1.53592610359,0.450861930847,0.37051987648,1.98678803444,0.367194890976,0.304403066635,2.35398292542,0.484811067581,0.421192169189,2.838793993,0.335350036621,0.251449108124,3.17414402962,0.301105976105,0.238707065582,3.47525000572,0.283486127853,0.204625844955,3.75873613358,0.284731864929,0.207051038742,4.0434679985,0.549508094788,0.452349185944,4.59297609329,0.401981830597,0.337710857391,4.99495792389,,,,0.333669185638,0.253383159637,5.32862710953,0.686623811722,0.605689048767,6.01525092125,,,,,j,1,0.589112043381,j,1,2.12751197815,,,,None,None,1.00276708603,0.924918889999,7.01801800728,0.467607975006,0.388528823853,7.48562598228,,,,,,,,,,,,,1,5,4,60.31186191108887,Dissertation,2018_Jul_20_1543,4,
,,0,,,Verdadero,Falso,f,B,single_left,Los pasteles en la cocina de los Menéndez son para la fiesta de cumpleaños,0,0,0,1,f,0,232,Los Menéndez van a una fiesta.,,,,,,,,,,,,,,,,,,,,,,,,,0,0,0,0,0,29,29,31,,,,,,,,,,,,,,,,,,0.56665802002,0.524327039719,0.56665802002,0.234342098236,0.18581700325,0.801000118256,0.233556985855,0.166830062866,1.03455710411,0.269016981125,0.203891038895,1.30357408524,0.317801952362,0.255186080933,1.6213760376,0.400373935699,0.33873796463,2.0217499733,0.366911172867,0.303534984589,2.38866114616,0.469209909439,0.390057086945,2.8578710556,0.750840902328,0.687077045441,3.60871195793,0.46910905838,0.404942989349,4.07782101631,0.351208925247,0.284722805023,4.42902994156,0.383913993835,0.318928956985,4.81294393539,0.284026145935,0.221284151077,5.09697008133,0.399967908859,0.335667133331,5.49693799019,,,,,,,,,,,,,,f,1,0.553637981415,f,1,1.7252509594,,,,None,None,,,,,,,,,,,,,,,,,,,1,5,4,60.31186191108887,Dissertation,2018_Jul_20_1543,4,
,,0,,,Verdadero,Falso,j,B,incongruent_left,Los chicos pusieron el pollo que su mamá preparó en el horno en la mesa antes de comer,1,1,1,0,f,1,39,La mamá preparó la comida en la mesa.,,,,,,,,,,,,,,,,,,,,,,,,,0,0,0,0,0,30,30,18,,,,,,,,,,,,,,,,,,0.382287979126,0.335180997849,0.382287979126,0.285542011261,0.20652794838,0.667829990387,0.300628185272,0.238269090652,0.968458175659,0.317708015442,0.25496506691,1.2861661911,0.466877937317,0.404324054718,1.75304412842,0.335258960724,0.271406888962,2.08830308914,0.315789937973,0.23520898819,2.40409302711,0.485318183899,0.417224168777,2.88941121101,0.385440826416,0.32116317749,3.27485203743,0.451148033142,0.384989976883,3.72600007057,0.451100111008,0.388864994049,4.17710018158,0.31756401062,0.25105714798,4.4946641922,0.299757957458,0.23689198494,4.79442214966,0.285024881363,0.222164869308,5.07944703102,,,,0.299680948257,0.219044923782,5.37912797928,0.352108001709,0.284764051437,5.73123598099,,,,,f,1,0.673920869827,j,1,3.35984683037,,,,None,None,0.366868019104,0.304531097412,6.09810400009,0.368060112,0.287101984024,6.46616411209,,,,,,,,,,,,,1,5,4,60.31186191108887,Dissertation,2018_Jul_20_1543,4,
,,0,,,Verdadero,Falso,f,B,single_right,Los meseros preparan las verduras en la cocina antes de servirlas,0,0,0,1,j,0,234,Los meseros lavan las verduras.,,,,,,,,,,,,,,,,,,,,,,,,,0,0,0,0,0,31,31,33,,,,,,,,,,,,,,,,,,0.618402957916,0.566754817963,0.618402957916,0.350327968597,0.304140090942,0.968730926514,0.368118047714,0.305418014526,1.33684897423,0.602222919464,0.556214094162,1.93907189369,0.349672079086,0.287353992462,2.28874397278,0.55279302597,0.488806962967,2.84153699875,0.333412885666,0.270747900009,3.17494988441,0.333852052689,0.266879081726,3.5088019371,0.335024118423,0.270995140076,3.84382605553,0.417059898376,0.35039806366,4.2608859539,0.385159015656,0.32140994072,4.64604496956,,,,,,,,,,,,,,,,,,,,,,,j,1,0.435129165649,f,1,6.31866502762,,,,None,None,,,,,,,,,,,,,,,,,,,1,5,4,60.31186191108887,Dissertation,2018_Jul_20_1543,4,
,,1,,,Verdadero,Falso,f,A,congruent_right,The girl,0,0,0,0,j,0,312,a,,,,,,,,,,,,,,,,,,,,,,,,,0,0,0,0,0,32,32,71,,,,,,,,,,,,,,,,,,,,,,,,,,,,,,,,,,,,,,,,,,,,,,,,,,,,,,,,,,,,,,,,,,,,,,,,,j,1,0.556264162064,None,0,,,,,None,None,,,,,,,,,,,,,,,,,,,1,5,4,60.31186191108887,Dissertation,2018_Jul_20_1543,4,
,,0,,,Verdadero,Falso,f,A,single_left,The girl,0,0,0,1,f,0,305,a,,,,,,,,,,,,,,,,,,,,,,,,,0,0,0,0,0,33,33,64,,,,,,,,,,,,,,,,,,,,,,,,,,,,,,,,,,,,,,,,,,,,,,,,,,,,,,,,,,,,,,,,,,,,,,,,,f,1,0.420994997025,None,0,,,,,None,None,,,,,,,,,,,,,,,,,,,1,5,4,60.31186191108887,Dissertation,2018_Jul_20_1543,4,
,,0,,,Verdadero,Falso,j,B,incongruent_left,Antes de comer el pastel los niños cantaron "Cumpleaños Feliz",0,0,1,0,f,0,239,El pastel era para el final del curso.,,,,,,,,,,,,,,,,,,,,,,,,,0,0,0,0,0,34,34,38,,,,,,,,,,,,,,,,,,0.182978868484,0.148475885391,0.182978868484,0.5355219841,0.484635829926,0.718500852585,0.335268974304,0.288041114807,1.05376982689,0.317170143127,0.272311925888,1.37093997002,0.351179838181,0.289033889771,1.7221198082,0.401130199432,0.354702949524,2.12325000763,0.400759935379,0.338989973068,2.52400994301,0.518362045288,0.468473911285,3.0423719883,0.685209035873,0.639532089233,3.72758102417,0.651233911514,0.605126857758,4.37881493568,,,,,,,,,,,,,,,,,,,,,,,,,,f,1,0.554562091827,j,1,5.82016801834,,,,None,None,,,,,,,,,,,,,,,,,,,1,5,4,60.31186191108887,Dissertation,2018_Jul_20_1543,4,
,,0,,,Verdadero,Falso,f,A,single_right,The girl,0,0,0,1,j,0,306,a,,,,,,,,,,,,,,,,,,,,,,,,,0,0,0,0,0,35,35,65,,,,,,,,,,,,,,,,,,,,,,,,,,,,,,,,,,,,,,,,,,,,,,,,,,,,,,,,,,,,,,,,,,,,,,,,,j,1,0.671684026718,None,0,,,,,None,None,,,,,,,,,,,,,,,,,,,1,5,4,60.31186191108887,Dissertation,2018_Jul_20_1543,4,
,,0,,,Verdadero,Falso,f,B,incongruent_left,Antes de que celebraran la leche se volvió agria,0,1,1,0,f,0,105,Van a tener que comprar más leche.,,,,,,,,,,,,,,,,,,,,,,,,,0,0,0,0,0,36,36,22,,,,,,,,,,,,,,,,,,0.500591993332,0.471233129501,0.500591993332,0.284122943878,0.239030122757,0.78471493721,0.24998497963,0.204836130142,1.03469991684,0.267972946167,0.219058990479,1.30267286301,0.332692146301,0.28805398941,1.63536500931,0.418840885162,0.371627092361,2.05420589447,0.450971126556,0.385483980179,2.50517702103,0.468418836594,0.422024011612,2.97359585762,1.15156197548,1.10410308838,4.1251578331,,,,,,,,,,,,,,,,,,,,,,,,,,,,,f,1,0.705363035202,f,1,2.31017708778,,,,None,None,,,,,,,,,,,,,,,,,,,1,5,4,60.31186191108887,Dissertation,2018_Jul_20_1543,4,
,,0,,,Verdadero,Falso,j,B,incongruent_right,Los empleados colocaron los avisos que su jefe les dejó en la entrada del edificio,0,1,1,0,j,0,120,Los empleados no sabían qué hacer con los avisos.,,,,,,,,,,,,,,,,,,,,,,,,,0,0,0,0,0,37,37,29,,,,,,,,,,,,,,,,,,0.60058093071,0.556257009506,0.60058093071,0.333760023117,0.269865989685,0.934340953827,0.352308988571,0.288733005524,1.2866499424,0.367556095123,0.305130004883,1.65420603752,0.400000095367,0.320523023605,2.05420613289,0.535717010498,0.473479986191,2.58992314339,0.501136779785,0.434782028198,3.09105992317,0.417900085449,0.355026960373,3.50896000862,0.283833026886,0.220503807068,3.79279303551,0.468254089355,0.401622056961,4.26104712486,0.350209951401,0.287524938583,4.61125707626,0.468327045441,0.405487060547,5.0795841217,0.366134881973,0.30197095871,5.44571900368,0.485774993896,0.421330928802,5.93149399757,,,,0.417500019073,0.33749294281,6.34899401665,,,,,,,,j,1,0.652237892151,j,1,2.72597122192,,,,None,space,,,,,,,,,,,,,5.97139406204,,,,,,1,5,4,60.31186191108887,Dissertation,2018_Jul_20_1543,4,
,,0,,,Verdadero,Falso,f,B,single_right,Mi tarjeta de crédito se me quedó en casa,0,0,0,1,j,0,254,Tuve que usar efectivo para pagar.,,,,,,,,,,,,,,,,,,,,,,,,,0,0,0,0,0,38,38,53,,,,,,,,,,,,,,,,,,0.0315790176392,0.00235414505005,0.0315790176392,0.684807777405,0.653611183167,0.716386795044,0.419287204742,0.368771076202,1.13567399979,0.367743968964,0.323553085327,1.50341796875,0.333709955215,0.288063049316,1.83712792397,0.418331861496,0.368603944778,2.25545978546,0.317140102386,0.272485971451,2.57259988785,0.518404006958,0.468247175217,3.09100389481,0.383904933929,0.338165044785,3.47490882874,,,,,,,,,,,,,,,,,,,,,,,,,,,,,j,1,0.522624015808,f,1,1.89348697662,,,,None,None,,,,,,,,,,,,,,,,,,,1,5,4,60.31186191108887,Dissertation,2018_Jul_20_1543,4,
,,1,,,Verdadero,Falso,f,B,congruent_left,"Entre los amigos en la fiesta de Luis estaban sus hermanos, Marisa y Germán ",0,0,0,0,f,0,255,María y Germán son amigos de Luis.,,,,,,,,,,,,,,,,,,,,,,,,,0,0,0,0,0,39,39,54,,,,,,,,,,,,,,,,,,0.383599996567,0.341881036758,0.383599996567,0.332501888275,0.270164966583,0.716101884842,0.318429946899,0.254671096802,1.03453183174,0.416656970978,0.353347063065,1.45118880272,0.368628025055,0.303622961044,1.81981682777,0.31702208519,0.253040075302,2.13683891296,0.368933916092,0.306222915649,2.50577282906,0.383546113968,0.320992946625,2.88931894302,0.418318986893,0.355315923691,3.30763792992,0.334899902344,0.271847009659,3.64253783226,0.400917053223,0.3216547966,4.04345488548,0.415852069855,0.352010011673,4.45930695534,0.369098901749,0.321266889572,4.82840585709,0.366174936295,0.302453041077,5.19458079338,,,,,,,,,,,,,,f,1,0.522386074066,j,0,1.72510886192,,,,None,None,,,,,,,,,,,,,,,,,,,1,5,4,60.31186191108887,Dissertation,2018_Jul_20_1543,4,
,,1,,,Verdadero,Falso,f,A,congruent_right,The girl,0,0,0,0,j,0,308,a,,,,,,,,,,,,,,,,,,,,,,,,,0,0,0,0,0,40,40,67,,,,,,,,,,,,,,,,,,,,,,,,,,,,,,,,,,,,,,,,,,,,,,,,,,,,,,,,,,,,,,,,,,,,,,,,,j,1,0.587649106979,None,0,,,,,None,None,,,,,,,,,,,,,,,,,,,1,5,4,60.31186191108887,Dissertation,2018_Jul_20_1543,4,
,,0,,,Verdadero,Falso,f,B,single_left,La estudiante se encontró con su profesora para calmar su preocupación ,0,0,0,1,f,0,260,La profesora estaba muy preocupada.,,,,,,,,,,,,,,,,,,,,,,,,,0,0,0,0,0,41,41,59,,,,,,,,,,,,,,,,,,0.349630117416,0.300788879395,0.349630117416,0.318158864975,0.25476193428,0.667788982391,0.316698074341,0.253638982773,0.984487056732,0.333348035812,0.270560979843,1.31783509254,0.334923028946,0.287531137466,1.65275812149,0.334744930267,0.26710319519,1.98750305176,0.400578975677,0.339520931244,2.38808202744,0.433515071869,0.368571996689,2.8215970993,0.369287967682,0.305117845535,3.19088506699,0.349863052368,0.270940065384,3.54074811935,0.402473926544,0.339174985886,3.9432220459,,,,,,,,,,,,,,,,,,,,,,,f,1,0.35246515274,f,1,1.59168601036,,,,None,None,,,,,,,,,,,,,,,,,,,1,5,4,60.31186191108887,Dissertation,2018_Jul_20_1543,4,
,,1,,,Verdadero,Falso,f,A,congruent_right,The girl,0,0,0,0,j,0,304,a,,,,,,,,,,,,,,,,,,,,,,,,,0,0,0,0,0,42,42,63,,,,,,,,,,,,,,,,,,,,,,,,,,,,,,,,,,,,,,,,,,,,,,,,,,,,,,,,,,,,,,,,,,,,,,,,,j,1,0.370304107666,None,0,,,,,None,None,,,,,,,,,,,,,,,,,,,1,5,4,60.31186191108887,Dissertation,2018_Jul_20_1543,4,
,,0,,,Verdadero,Falso,f,A,single_left,The girl,0,0,0,1,f,0,309,a,,,,,,,,,,,,,,,,,,,,,,,,,0,0,0,0,0,43,43,68,,,,,,,,,,,,,,,,,,,,,,,,,,,,,,,,,,,,,,,,,,,,,,,,,,,,,,,,,,,,,,,,,,,,,,,,,f,1,0.356297016144,None,0,,,,,None,None,,,,,,,,,,,,,,,,,,,1,5,4,60.31186191108887,Dissertation,2018_Jul_20_1543,4,
,,0,,,Verdadero,Falso,j,B,single_right,Subí la escalera para irme a dormir,0,0,0,1,j,0,250,Mi cuarto de dormir está en la planta baja.,,,,,,,,,,,,,,,,,,,,,,,,,0,0,0,0,0,44,44,49,,,,,,,,,,,,,,,,,,0.733709812164,0.709703922272,0.733709812164,0.502503156662,0.471395015717,1.23621296883,0.317858934402,0.288324117661,1.55407190323,0.333548069,0.287181854248,1.88761997223,0.299501895905,0.253384113312,2.18712186813,0.303020954132,0.25230884552,2.49014282227,0.366633176804,0.317855119705,2.85677599907,,,,,,,,,,,,,,,,,,,,,,,,,,,,,,,,,,,j,1,0.384776115417,j,1,3.4798951149,,,,None,None,,,,,,,,,,,,,,,,,,,1,5,4,60.31186191108887,Dissertation,2018_Jul_20_1543,4,
,,1,,,Verdadero,Falso,f,B,congruent_right,El padre metió las copas sucias que su hija dejó en la mesa en el lavaplatos cuando acabó de comer,1,1,0,0,j,0,37,El padre limpió la mesa después de la comida.,,,,,,,,,,,,,,,,,,,,,,,,,0,0,0,0,0,45,45,16,,,,,,,,,,,,,,,,,,0.21702003479,0.167147874832,0.21702003479,0.435465097427,0.356469869614,0.652485132217,0.233559846878,0.15500497818,0.886044979095,0.251315116882,0.187809944153,1.13736009598,0.283931970596,0.217885971069,1.42129206657,0.400629997253,0.304803133011,1.82192206383,0.619019985199,0.552662849426,2.44094204903,0.350853919983,0.271708965302,2.79179596901,0.334302186966,0.251872062683,3.12609815598,0.399850845337,0.320755004883,3.52594900131,0.318000078201,0.253904104233,3.84394907951,0.383949041367,0.320507049561,4.22789812088,0.318101882935,0.250822782516,4.54600000381,0.384828090668,0.321568012238,4.93082809448,,,,0.299957990646,0.222985029221,5.23078608513,0.334910869598,0.251171112061,5.56569695473,,,,,j,1,0.450258970261,f,1,4.03131699562,,,,None,None,0.400535106659,0.334259986877,5.96623206139,0.317534923553,0.237539052963,6.28376698494,0.351191997528,0.287725925446,6.63495898247,0.401637077332,0.338232040405,7.0365960598,,,,,,,1,5,4,60.31186191108887,Dissertation,2018_Jul_20_1543,4,
,,0,,,Verdadero,Falso,j,B,incongruent_right,Nacho puso las monedas que traía en la sala cuando regresó a su casa,0,1,1,0,j,0,112,Nacho perdió todo su dinero en la calle.,,,,,,,,,,,,,,,,,,,,,,,,,0,0,0,0,0,46,46,25,,,,,,,,,,,,,,,,,,0.039516210556,0.00279092788696,0.039516210556,0.62936091423,0.569866895676,0.668877124786,0.301524877548,0.251619100571,0.970402002335,0.366307020187,0.30025100708,1.33670902252,0.402444124222,0.352075099945,1.73915314674,0.382565975189,0.335968017578,2.12171912193,0.501580953598,0.450278997421,2.62330007553,0.45089507103,0.403918981552,3.07419514656,0.351403951645,0.286257982254,3.42559909821,0.285476922989,0.238523006439,3.71107602119,0.451148986816,0.388303995132,4.16222500801,0.700176000595,0.63593006134,4.86240100861,0.468954086304,0.421436071396,5.33135509491,0.469146966934,0.406208992004,5.80050206184,,,,,,,,,,,,,,j,1,0.556120872498,f,0,4.16098880768,,,,None,None,,,,,,,,,,,,,,,,,,,1,5,4,60.31186191108887,Dissertation,2018_Jul_20_1543,4,
,,1,,,Verdadero,Falso,f,A,congruent_left,The girl,0,0,0,0,f,0,303,a,,,,,,,,,,,,,,,,,,,,,,,,,0,0,0,0,0,47,47,62,,,,,,,,,,,,,,,,,,,,,,,,,,,,,,,,,,,,,,,,,,,,,,,,,,,,,,,,,,,,,,,,,,,,,,,,,j,0,0.538864135742,None,0,,,,,None,None,,,,,,,,,,,,,,,,,,,1,5,4,60.31186191108887,Dissertation,2018_Jul_20_1543,4,
,,0,,,Verdadero,Falso,f,B,single_left,Mi celular se me rompió cuando se me cayó al piso,0,0,0,1,f,0,252,Mi celular ya está roto.,,,,,,,,,,,,,,,,,,,,,,,,,0,0,0,0,0,48,48,51,,,,,,,,,,,,,,,,,,0.385282039642,0.359611988068,0.385282039642,0.317266941071,0.271414995193,0.702548980713,0.333586931229,0.270461797714,1.03613591194,0.417890071869,0.37273311615,1.45402598381,0.318440914154,0.273280143738,1.77246689796,0.383625030518,0.336741924286,2.15609192848,0.401834011078,0.355665922165,2.55792593956,0.384139060974,0.338930845261,2.94206500053,0.434989929199,0.389811038971,3.37705492973,0.433408021927,0.387422800064,3.81046295166,0.385262966156,0.334831953049,4.19572591782,,,,,,,,,,,,,,,,,,,,,,,f,1,0.587225914001,f,1,2.45737504959,,,,None,None,,,,,,,,,,,,,,,,,,,1,5,4,60.31186191108887,Dissertation,2018_Jul_20_1543,4,
,,0,,,Verdadero,Falso,f,B,incongruent_right,El chico toca el violín raro,0,0,1,0,j,0,257,El chico no sabe tocar bien.,,,,,,,,,,,,,,,,,,,,,,,,,0,0,0,0,0,49,49,56,,,,,,,,,,,,,,,,,,0.0652070045471,0.0441629886627,0.0652070045471,0.484861850739,0.439804792404,0.550068855286,0.351917028427,0.303236961365,0.901985883713,0.365738153458,0.334733009338,1.26772403717,0.385861873627,0.356153964996,1.6535859108,0.468101978302,0.438381910324,2.1216878891,,,,,,,,,,,,,,,,,,,,,,,,,,,,,,,,,,,,,,j,1,0.686553955078,f,1,2.09313488007,,,,None,None,,,,,,,,,,,,,,,,,,,1,5,4,60.31186191108887,Dissertation,2018_Jul_20_1543,4,
,,0,,,Verdadero,Falso,j,B,single_left,Linda hace un paseo en las montañas todos los sábados,0,0,0,1,f,0,236,A Linda no le gusta la naturaleza.,,,,,,,,,,,,,,,,,,,,,,,,,0,0,0,0,0,50,50,35,,,,,,,,,,,,,,,,,,0.115727901459,0.0853881835938,0.115727901459,0.501676082611,0.455035924911,0.61740398407,0.334259033203,0.288083076477,0.951663017273,0.317296981812,0.271548032761,1.26895999908,0.299659013748,0.255722045898,1.56861901283,0.367946863174,0.302760839462,1.93656587601,0.334443092346,0.287863969803,2.27100896835,0.452112913132,0.406718015671,2.72312188148,0.317183971405,0.271037101746,3.04030585289,0.366945028305,0.305498123169,3.4072508812,,,,,,,,,,,,,,,,,,,,,,,,,,f,1,0.472680091858,j,1,2.1931180954,,,,None,None,,,,,,,,,,,,,,,,,,,1,5,4,60.31186191108887,Dissertation,2018_Jul_20_1543,4,
,,0,,,Verdadero,Falso,f,B,incongruent_left,Cuando la chica cena los platos terminan muy sucios,0,1,1,0,f,0,109,La chica come de manera descuidada.  ,,,,,,,,,,,,,,,,,,,,,,,,,0,0,0,0,0,51,51,24,,,,,,,,,,,,,,,,,,0.0442790985107,0.00341200828552,0.0442790985107,0.589704036713,0.537768125534,0.633983135223,0.301375865936,0.254204034805,0.93535900116,0.301432132721,0.25473690033,1.23679113388,0.315927028656,0.26956486702,1.55271816254,0.452530860901,0.406213998795,2.00524902344,0.584571123123,0.506288051605,2.58982014656,0.450790882111,0.403962850571,3.04061102867,0.535778045654,0.485352039337,3.57638907433,,,,,,,,,,,,,,,,,,,,,,,,,,,,,f,1,0.852500200272,f,1,2.8397321701,,,,None,None,,,,,,,,,,,,,,,,,,,1,5,4,60.31186191108887,Dissertation,2018_Jul_20_1543,4,
,,1,,,Verdadero,Falso,j,B,congruent_right,La obra de teatro se presentó en el salón de conciertos,0,0,0,0,j,0,253,Los actores presentaron en un anfiteatro.,,,,,,,,,,,,,,,,,,,,,,,,,0,0,0,0,0,52,52,52,,,,,,,,,,,,,,,,,,0.0657269954681,0.0335969924927,0.0657269954681,0.518898010254,0.472893953323,0.584625005722,0.282712936401,0.23837518692,0.867337942123,0.267794132233,0.222416877747,1.13513207436,0.217010974884,0.155698060989,1.35214304924,0.518445014954,0.472398996353,1.87058806419,0.317221879959,0.273235082626,2.18780994415,0.434685945511,0.388345003128,2.62249588966,0.33314704895,0.270441055298,2.95564293861,0.369382143021,0.321537017822,3.32502508163,0.316267967224,0.270930051804,3.64129304886,,,,,,,,,,,,,,,,,,,,,,,j,1,0.439303874969,j,1,4.4174888134,,,,None,None,,,,,,,,,,,,,,,,,,,1,5,4,60.31186191108887,Dissertation,2018_Jul_20_1543,4,
,,1,,,Verdadero,Falso,f,B,congruent_left,Las chicas acomodaron la ropa que sus padres les dejaron en su cuarto dentro del clóset antes de dormir,1,1,0,0,f,0,36,Los padres doblaron la ropa para sus hijas.,,,,,,,,,,,,,,,,,,,,,,,,,0,0,0,0,0,53,53,15,,,,,,,,,,,,,,,,,,0.585532903671,0.524770975113,0.585532903671,0.31707906723,0.237570047379,0.902611970901,0.300729036331,0.222374916077,1.20334100723,0.253825902939,0.172227144241,1.45716691017,0.297142028809,0.218252182007,1.75430893898,0.318479061127,0.254341125488,2.07278800011,0.40002989769,0.32004904747,2.4728178978,0.351836204529,0.287938117981,2.82465410233,0.301484823227,0.221702098846,3.12613892555,0.316735029221,0.223210811615,3.44287395477,0.368402957916,0.285514116287,3.81127691269,0.350499153137,0.270771980286,4.16177606583,0.367956876755,0.255792140961,4.52973294258,0.417598009109,0.334785938263,4.94733095169,,,,0.384432077408,0.304024934769,5.3317630291,0.333966970444,0.270743131638,5.66572999954,,,,,f,1,0.505147218704,j,0,2.75782179832,,,,None,None,0.316446065903,0.233093976974,5.98217606544,0.518942832947,0.453826904297,6.50111889839,0.418532133102,0.352030038834,6.91965103149,,,,,,,,,,1,5,4,60.31186191108887,Dissertation,2018_Jul_20_1543,4,
,,1,,,Verdadero,Falso,f,B,congruent_left,La empleada guardó los documentos que recibió en el buzón en una carpeta después de revisarlos,1,1,0,0,f,0,32,La empleada revisó los documentos.,,,,,,,,,,,,,,,,,,,,,,,,,0,0,0,0,0,54,54,11,,,,,,,,,,,,,,,,,,0.600499868393,0.547732114792,0.600499868393,0.318925142288,0.256195068359,0.919425010681,0.350582838058,0.271397829056,1.27000784874,0.401616096497,0.322948932648,1.67162394524,0.432997941971,0.369565010071,2.10462188721,0.335698127747,0.271681070328,2.44032001495,0.382630825043,0.316120147705,2.82295084,0.319388151169,0.254867076874,3.14233899117,0.367552995682,0.305280923843,3.50989198685,0.401151895523,0.323298931122,3.91104388237,0.349954128265,0.270533800125,4.26099801064,0.385390996933,0.323023080826,4.64638900757,0.433012962341,0.369426965714,5.07940196991,0.469414949417,0.402206897736,5.54881691933,,,,0.41761803627,0.334291934967,5.9664349556,0.417599916458,0.356105804443,6.38403487206,,,,,f,1,0.436839818954,f,1,2.19084191322,,,,None,None,,,,,,,,,,,,,,,,,,,1,5,4,60.31186191108887,Dissertation,2018_Jul_20_1543,4,
,,1,,,Verdadero,Falso,j,B,congruent_left,No aceptaron a las mujeres en el club por sus prejuicios,0,0,0,0,f,0,259,Las mujeres tenían muchos prejuicios.,,,,,,,,,,,,,,,,,,,,,,,,,0,0,0,0,0,55,55,58,,,,,,,,,,,,,,,,,,0.583568096161,0.551369190216,0.583568096161,0.267731904984,0.222890853882,0.851300001144,0.299924135208,0.234848022461,1.15122413635,0.351498842239,0.305841207504,1.50272297859,0.384057998657,0.334241867065,1.88678097725,0.33425116539,0.270284891129,2.22103214264,0.418361902237,0.371892929077,2.63939404488,0.434377908707,0.371497869492,3.07377195358,0.350121021271,0.302762985229,3.42389297485,0.367521047592,0.316176891327,3.79141402245,0.30187702179,0.254261016846,4.09329104424,,,,,,,,,,,,,,,,,,,,,,,f,1,0.487892866135,j,1,2.36159801483,,,,None,None,,,,,,,,,,,,,,,,,,,1,5,4,60.31186191108887,Dissertation,2018_Jul_20_1543,4,
,,0,,,Verdadero,Falso,j,B,incongruent_left,Cuando la artista pintó el cuadro cayó de la pared,1,1,1,0,f,1,27,El cuadro está colgado firmemente.,,,,,,,,,,,,,,,,,,,,,,,,,0,0,0,0,0,56,56,6,,,,,,,,,,,,,,,,,,0.133816957474,0.0931789875031,0.133816957474,0.484920024872,0.439092159271,0.618736982346,0.28410410881,0.238367080688,0.902841091156,0.300187826157,0.254462957382,1.20302891731,0.316608190536,0.270002126694,1.51963710785,0.352281808853,0.306304931641,1.8719189167,0.367182016373,0.321972846985,2.23910093307,0.451575994492,0.388339042664,2.69067692757,0.417684078217,0.372383832932,3.10836100578,0.416821956635,0.369819879532,3.52518296242,,,,,,,,,,,,,,,,,,,,,,,,,,f,1,0.538886070251,f,0,3.68176007271,,,,None,None,,,,,,,,,,,,,,,,,,,1,5,4,60.31186191108887,Dissertation,2018_Jul_20_1543,4,
,,1,,,Verdadero,Falso,f,B,congruent_left,Cuando la participante adivinó la respuesta apareció en la pantalla,1,1,0,0,f,0,28,La participante está en un concurso.,,,,,,,,,,,,,,,,,,,,,,,,,0,0,0,0,0,57,57,7,,,,,,,,,,,,,,,,,,0.535534143448,0.499696969986,0.535534143448,0.335234880447,0.285645008087,0.870769023895,0.282824039459,0.222856998444,1.15359306335,0.267535924911,0.204554796219,1.42112898827,0.533977031708,0.469368934631,1.95510601997,0.352715969086,0.304881095886,2.30782198906,0.350274085999,0.288666009903,2.65809607506,0.266447067261,0.184429168701,2.92454314232,0.619271993637,0.571874856949,3.54381513596,0.367457866669,0.306483983994,3.91127300262,,,,,,,,,,,,,,,,,,,,,,,,,,f,1,0.553105115891,f,1,2.67216992378,,,,None,None,,,,,,,,,,,,,,,,,,,1,5,4,60.31186191108887,Dissertation,2018_Jul_20_1543,4,
,,0,,,Verdadero,Falso,f,B,single_right,La casa de Enrique le quedó muy limpia antes de su fiesta,0,0,0,1,j,0,246,Enrique limpió la casa antes de recibir a los invitados.,,,,,,,,,,,,,,,,,,,,,,,,,0,0,0,0,0,58,58,45,,,,,,,,,,,,,,,,,,0.498862028122,0.464452981949,0.498862028122,0.319304943085,0.273647069931,0.818166971207,0.299520015717,0.236529111862,1.11768698692,0.418697118759,0.367776870728,1.53638410568,0.350749969482,0.288507938385,1.88713407516,0.385027885437,0.319809913635,2.2721619606,0.317481040955,0.271451950073,2.58964300156,0.451261043549,0.404906988144,3.0409040451,0.416769981384,0.354218959808,3.45767402649,0.43536901474,0.385406970978,3.89304304123,0.349487066269,0.286755084991,4.2425301075,0.335811853409,0.28854393959,4.57834196091,,,,,,,,,,,,,,,,,,,,j,1,0.472183942795,f,1,3.99806404114,,,,None,None,,,,,,,,,,,,,,,,,,,1,5,4,60.31186191108887,Dissertation,2018_Jul_20_1543,4,
,,0,,,Verdadero,Falso,f,B,single_right,Cuando los amigos tienen una fiesta todos toman vino o cerveza,0,0,0,1,j,0,242,Mis amigos no toman whisky en las fiestas.,,,,,,,,,,,,,,,,,,,,,,,,,0,0,0,0,0,59,59,41,,,,,,,,,,,,,,,,,,0.534154891968,0.498393058777,0.534154891968,0.333739042282,0.271417856216,0.86789393425,0.33478307724,0.272850990295,1.20267701149,0.333941936493,0.287827968597,1.53661894798,0.366405010223,0.319946050644,1.90302395821,0.41928601265,0.354923009872,2.32230997086,0.366464853287,0.303327083588,2.68877482414,0.351082086563,0.303936004639,3.03985691071,0.367451906204,0.320962905884,3.40730881691,0.385536193848,0.318421125412,3.79284501076,0.40002989769,0.353229999542,4.19287490845,,,,,,,,,,,,,,,,,,,,,,,j,1,0.388606071472,f,1,3.29741477966,,,,None,None,,,,,,,,,,,,,,,,,,,1,5,4,60.31186191108887,Dissertation,2018_Jul_20_1543,4,
,,1,,,Verdadero,Falso,f,B,congruent_right,Daniel metió el abrigo que su pareja dejó en la maleta en el clóset cuando regresaron,1,1,0,0,j,0,33,La pareja llevó un abrigo en su equipaje.,,,,,,,,,,,,,,,,,,,,,,,,,0,0,0,0,0,60,60,12,,,,,,,,,,,,,,,,,,0.566215991974,0.502999067307,0.566215991974,0.301680803299,0.237274885178,0.867896795273,0.301660060883,0.237975120544,1.16955685616,0.284060955048,0.22092795372,1.4536178112,0.28315615654,0.221456050873,1.73677396774,0.300308942795,0.23428606987,2.03708291054,0.301258087158,0.237123966217,2.3383409977,0.402079820633,0.338488101959,2.74042081833,0.383869171143,0.304311037064,3.12428998947,0.334941864014,0.271276950836,3.45923185349,0.616662025452,0.551712989807,4.07589387894,0.367933034897,0.30420088768,4.44382691383,0.46793794632,0.405034065247,4.91176486015,0.351433992386,0.284283161163,5.26319885254,,,,0.352067947388,0.271595954895,5.61526679993,0.349948167801,0.287669897079,5.96521496773,,,,,j,1,0.40554690361,f,1,2.84446287155,,,,None,None,,,,,,,,,,,,,,,,,,,1,5,4,60.31186191108887,Dissertation,2018_Jul_20_1543,4,
,,0,,,Verdadero,Falso,f,A,incongruent_right,The girl,0,0,1,0,j,0,315,a,,,,,,,,,,,,,,,,,,,,,,,,,0,0,0,0,0,61,61,74,,,,,,,,,,,,,,,,,,,,,,,,,,,,,,,,,,,,,,,,,,,,,,,,,,,,,,,,,,,,,,,,,,,,,,,,,j,1,0.637267827988,None,0,,,,,None,None,,,,,,,,,,,,,,,,,,,1,5,4,60.31186191108887,Dissertation,2018_Jul_20_1543,4,
,,0,,,Verdadero,Falso,f,B,incongruent_right,Antes de servir la comida el mesero rellenó las copas,0,0,1,0,j,0,245,El mesero era muy atento con los clientes.,,,,,,,,,,,,,,,,,,,,,,,,,0,0,0,0,0,62,62,44,,,,,,,,,,,,,,,,,,0.198278903961,0.165909051895,0.198278903961,0.302478075027,0.255747795105,0.500756978989,0.23273396492,0.171147823334,0.733490943909,0.285109996796,0.238882064819,1.0186009407,0.33437204361,0.288396835327,1.35297298431,0.367619037628,0.322881937027,1.72059202194,0.334292888641,0.2891061306,2.05488491058,0.382854938507,0.33562207222,2.43773984909,0.535875082016,0.488088130951,2.97361493111,0.36689209938,0.321113109589,3.34050703049,,,,,,,,,,,,,,,,,,,,,,,,,,j,1,0.574019908905,f,1,2.25996804237,,,,None,None,,,,,,,,,,,,,,,,,,,1,5,4,60.31186191108887,Dissertation,2018_Jul_20_1543,4,
,,0,,,Verdadero,Falso,f,B,single_left,"En la oficina había dos empleados, un periodista y un fotógrafo ",0,0,0,1,f,0,256,Había cuatro personas en la oficina.,,,,,,,,,,,,,,,,,,,,,,,,,0,0,0,0,0,63,63,55,,,,,,,,,,,,,,,,,,0.0649049282074,0.0253920555115,0.0649049282074,0.55091714859,0.486958026886,0.615822076797,0.854440927505,0.807420969009,1.4702630043,0.316254854202,0.270400047302,1.78651785851,0.4019780159,0.339274168015,2.1884958744,0.382882118225,0.335985898972,2.57137799263,0.518050909042,0.453541040421,3.08942890167,0.418864965439,0.354701042175,3.50829386711,0.384797096252,0.339826822281,3.89309096336,0.44987988472,0.383709907532,4.34297084808,0.418530225754,0.372636079788,4.76150107384,,,,,,,,,,,,,,,,,,,,,,,j,0,0.406997919083,j,0,3.92922210693,,,,None,None,,,,,,,,,,,,,,,,,,,1,5,4,60.31186191108887,Dissertation,2018_Jul_20_1543,4,
,,0,,,Verdadero,Falso,j,B,incongruent_left,El barista vació el café que los clientes dejaron en el fregadero cuando dijeron que estaba feo,0,1,1,0,f,0,117,El barista no escuchó las quejas de los clientes.,,,,,,,,,,,,,,,,,,,,,,,,,0,0,0,0,0,64,64,28,,,,,,,,,,,,,,,,,,0.568792104721,0.513190031052,0.568792104721,0.284316062927,0.221803188324,0.853108167648,0.317545890808,0.251022100449,1.17065405846,1.3184940815,1.24026203156,2.48914813995,0.586297035217,0.505487203598,3.07544517517,0.384074926376,0.322223186493,3.45952010155,0.417773008347,0.338246822357,3.87729310989,0.366661071777,0.303255796432,4.24395418167,0.619898796082,0.556547880173,4.86385297775,0.34921503067,0.286852836609,5.21306800842,0.418912172318,0.334739923477,5.63198018074,0.287113904953,0.224025011063,5.91909408569,0.414864063263,0.304672002792,6.33395814896,0.568418979645,0.48601603508,6.9023771286,,,,0.283756971359,0.222303152084,7.18613409996,0.299870967865,0.218879938126,7.48600506783,,,,,f,1,0.820874929428,j,1,3.88349080086,,,,None,None,0.419173002243,0.356106042862,7.90517807007,,,,,,,,,,,,,,,,1,5,4,60.31186191108887,Dissertation,2018_Jul_20_1543,4,
,,0,,,Verdadero,Falso,j,B,incongruent_right,Las artistas colocaron el cuadro que su colega dejó en la pared en la oficina privada antes de su exhibición,1,1,1,0,j,1,38,La galería de arte estaba vacía cuando las artistas llegaron.,,,,,,,,,,,,,,,,,,,,,,,,,0,0,0,0,0,65,65,17,,,,,,,,,,,,,,,,,,0.600527048111,0.543308019638,0.600527048111,0.267575979233,0.189442157745,0.868103027344,0.283293008804,0.188326835632,1.15139603615,0.418879032135,0.319312095642,1.57027506828,0.400059938431,0.321491956711,1.97033500671,0.285481214523,0.20542383194,2.25581622124,0.516865968704,0.437962055206,2.77268218994,0.284348964691,0.204018115997,3.05703115463,0.283315896988,0.203854084015,3.34034705162,0.28487610817,0.202320098877,3.62522315979,0.300034999847,0.202691793442,3.92525815964,0.285361051559,0.204144954681,4.2106192112,0.33364200592,0.254374980927,4.54426121712,0.383421897888,0.302993059158,4.92768311501,,,,0.384803056717,0.303910017014,5.31248617172,0.383829832077,0.299837827682,5.6963160038,,,,,j,1,0.855964899063,j,1,3.37934017181,,,,None,None,0.819565057755,0.736036062241,6.51588106155,0.351408004761,0.268376111984,6.86728906631,0.38344502449,0.286041975021,7.25073409081,0.417812108994,0.337177991867,7.6685461998,,,,,,,1,5,4,60.31186191108887,Dissertation,2018_Jul_20_1543,4,
,,1,,,Verdadero,Falso,j,B,congruent_left,La arquitecta guardó los planos en su bolsa,0,0,0,0,f,0,231,Los planos están en el archivero.,,,,,,,,,,,,,,,,,,,,,,,,,0,0,0,0,0,66,66,30,,,,,,,,,,,,,,,,,,0.5521671772,0.523786067963,0.5521671772,0.300657987595,0.254754781723,0.852825164795,0.301115989685,0.256070137024,1.15394115448,0.45143699646,0.405666828156,1.60537815094,0.333973884583,0.28813791275,1.93935203552,0.384438991547,0.338935852051,2.32379102707,0.416960000992,0.37043094635,2.74075102806,0.385225057602,0.338523864746,3.12597608566,,,,,,,,,,,,,,,,,,,,,,,,,,,,,,,,f,1,0.52192902565,j,1,3.58074092865,,,,None,None,,,,,,,,,,,,,,,,,,,1,5,4,60.31186191108887,Dissertation,2018_Jul_20_1543,4,
,,1,,,Verdadero,Falso,j,B,congruent_left,Los estudiantes metieron la tarea que la maestra les dio en la clase en sus bolsas antes de irse,1,1,0,0,f,0,40,La maestra se quedó con la tarea de los alumnos.,,,,,,,,,,,,,,,,,,,,,,,,,0,0,0,0,0,67,67,19,,,,,,,,,,,,,,,,,,0.551302909851,0.499533891678,0.551302909851,0.300444126129,0.236889123917,0.85174703598,0.300448894501,0.199584960938,1.15219593048,0.26722407341,0.201994895935,1.41942000389,0.436172962189,0.372043848038,1.85559296608,0.333409070969,0.252940177917,2.18900203705,0.367962837219,0.305006980896,2.55696487427,0.31768321991,0.256155967712,2.87464809418,0.317266941071,0.234553098679,3.19191503525,0.317566871643,0.254650831223,3.50948190689,0.367321014404,0.30487704277,3.8768029213,0.384473085403,0.288020849228,4.2612760067,0.318230867386,0.254818916321,4.57950687408,0.434470176697,0.356398105621,5.01397705078,,,,0.382797002792,0.319700956345,5.39677405357,0.384804010391,0.31986784935,5.78157806396,,,,,f,1,0.535056829453,f,0,3.24487090111,,,,None,None,0.318414926529,0.238239049911,6.09999299049,0.366133928299,0.285490989685,6.46612691879,0.434602975845,0.368134975433,6.90072989464,,,,,,,,,,1,5,4,60.31186191108887,Dissertation,2018_Jul_20_1543,4,
,,0,,,Verdadero,Falso,j,B,incongruent_right,El grupo musical que tocó en el salón de conciertos era muy bueno,0,0,1,0,j,0,233,El grupo no tocaba bien.,,,,,,,,,,,,,,,,,,,,,,,,,0,0,0,0,0,68,68,32,,,,,,,,,,,,,,,,,,0.567662000656,0.514703035355,0.567662000656,0.300296068192,0.23755812645,0.867958068848,0.384582996368,0.338150978088,1.25254106522,0.450690031052,0.387269973755,1.70323109627,0.489249944687,0.443432807922,2.19248104095,0.380309104919,0.322269916534,2.57279014587,0.384449005127,0.320338964462,2.957239151,0.786027908325,0.719822883606,3.74326705933,0.432979106903,0.368777990341,4.17624616623,0.484843969345,0.437232971191,4.66109013557,0.635645866394,0.585374832153,5.29673600197,0.534318208694,0.470754861832,5.83105421066,0.435611009598,0.373330116272,6.26666522026,,,,,,,,,,,,,,,,,j,1,0.50505900383,j,1,1.49143600464,,,,None,None,,,,,,,,,,,,,,,,,,,1,5,4,60.31186191108887,Dissertation,2018_Jul_20_1543,4,
,,0,,,Verdadero,Falso,j,B,incongruent_right,Tere colocó la prueba que la Sra. Martín le dejó en su mochila sin mirar la nota,0,1,1,0,j,0,116,A Tere le importó mucho su nota.,,,,,,,,,,,,,,,,,,,,,,,,,0,0,0,0,0,69,69,27,,,,,,,,,,,,,,,,,,0.532821178436,0.48855304718,0.532821178436,0.384019851685,0.319532871246,0.916841030121,1.16978216171,1.10451793671,2.08662319183,0.770427942276,0.69083404541,2.85705113411,0.53297495842,0.454232215881,3.39002609253,0.452960968018,0.388242959976,3.84298706055,0.583495140076,0.504722118378,4.42648220062,0.617700815201,0.553884983063,5.04418301582,0.53627204895,0.472233057022,5.58045506477,0.368078947067,0.272905826569,5.94853401184,0.266523122787,0.204159021378,6.21505713463,0.301219940186,0.239315986633,6.51627707481,0.318063020706,0.2521879673,6.83434009552,0.299844026566,0.239319086075,7.13418412209,,,,0.417772054672,0.354460954666,7.55195617676,0.418695926666,0.35547208786,7.97065210342,,,,,j,1,0.656697034836,j,1,3.15960693359,,,,None,None,0.484679937363,0.422125816345,8.45533204079,,,,,,,,,,,,,,,,1,5,4,60.31186191108887,Dissertation,2018_Jul_20_1543,4,
,,1,,,Verdadero,Falso,j,B,congruent_left,Después de pintar su casa Julieta tuvo que limpiar,0,0,0,0,f,0,243,Las paredes de la casa están descoloridas. ,,,,,,,,,,,,,,,,,,,,,,,,,0,0,0,0,0,70,70,42,,,,,,,,,,,,,,,,,,0.483999013901,0.455668926239,0.483999013901,0.383765220642,0.337612867355,0.867764234543,0.283841848373,0.235877990723,1.15160608292,0.233736991882,0.172091007233,1.3853430748,0.26685500145,0.201332092285,1.65219807625,0.267872095108,0.221374988556,1.92007017136,0.468235969543,0.422293186188,2.3883061409,0.350527048111,0.288341999054,2.73883318901,0.284829854965,0.237544059753,3.02366304398,,,,,,,,,,,,,,,,,,,,,,,,,,,,,f,1,0.522765874863,f,0,6.80145192146,,,,None,None,,,,,,,,,,,,,,,,,,,1,5,4,60.31186191108887,Dissertation,2018_Jul_20_1543,4,
,,0,,,Verdadero,Falso,j,B,single_right,El chico guapo está bien solo ,0,0,0,1,j,0,258,El chico está contento sin novia.,,,,,,,,,,,,,,,,,,,,,,,,,0,0,0,0,0,71,71,57,,,,,,,,,,,,,,,,,,0.584253072739,0.562800884247,0.584253072739,0.835111141205,0.789525032043,1.41936421394,0.299710988998,0.25461602211,1.71907520294,0.301256895065,0.254152059555,2.02033209801,0.502114057541,0.457525968552,2.52244615555,0.367825984955,0.318089008331,2.8902721405,,,,,,,,,,,,,,,,,,,,,,,,,,,,,,,,,,,,,,j,1,0.524095058441,f,0,5.16640806198,,,,None,None,,,,,,,,,,,,,,,,,,,1,5,4,60.31186191108887,Dissertation,2018_Jul_20_1543,4,
,,0,,,Verdadero,Falso,j,B,single_left,Cuando era niño mi papá quería ser arquitecto,0,0,0,1,f,0,244,Mi papá quería ser mecánico cuando era menor.,,,,,,,,,,,,,,,,,,,,,,,,,0,0,0,0,0,72,72,43,,,,,,,,,,,,,,,,,,0.467418909073,0.438113927841,0.467418909073,0.316845178604,0.269197940826,0.784264087677,0.302150011063,0.254317998886,1.08641409874,0.333928823471,0.28755402565,1.42034292221,0.36741399765,0.32130408287,1.78775691986,0.30056810379,0.255002975464,2.08832502365,0.30016207695,0.253035068512,2.3884871006,0.452597856522,0.390167951584,2.84108495712,,,,,,,,,,,,,,,,,,,,,,,,,,,,,,,,f,1,0.841868877411,j,1,5.53728508949,,,,None,None,,,,,,,,,,,,,,,,,,,1,5,4,60.31186191108887,Dissertation,2018_Jul_20_1543,4,
,,0,,,Verdadero,Falso,j,B,incongruent_left,Justo cuando aparcaron el carro viejo volvió a fallar,1,1,1,0,f,1,23,El carro está en una condición perfecta.,,,,,,,,,,,,,,,,,,,,,,,,,0,0,0,0,0,73,73,2,,,,,,,,,,,,,,,,,,0.482320070267,0.450793981552,0.482320070267,0.285014867783,0.237835884094,0.767334938049,0.250452041626,0.205593109131,1.01778697968,0.267821073532,0.189706087112,1.28560805321,0.299593925476,0.237574100494,1.58520197868,0.501742124557,0.421902894974,2.08694410324,0.400854825974,0.320621013641,2.48779892921,1.38857507706,1.32244300842,3.87637400627,0.400533914566,0.354817152023,4.27690792084,,,,,,,,,,,,,,,,,,,,,,,,,,,,,f,1,0.619385957718,j,1,3.26464486122,,,,None,None,,,,,,,,,,,,,,,,,,,1,5,4,60.31186191108887,Dissertation,2018_Jul_20_1543,4,
,,1,,,Verdadero,Falso,f,B,congruent_right,Cuando el escultor terminó la obra tenía tres metros  de altura,1,1,0,0,j,0,29,La estatua era muy alta.,,,,,,,,,,,,,,,,,,,,,,,,,0,0,0,0,0,74,74,8,,,,,,,,,,,,,,,,,,0.649506092072,0.611775159836,0.649506092072,0.33595085144,0.288132190704,0.985456943512,0.416743040085,0.370898962021,1.4021999836,0.434977054596,0.384876012802,1.83717703819,0.702250957489,0.639141082764,2.53942799568,0.550585985184,0.504378795624,3.09001398087,0.502365112305,0.436724901199,3.59237909317,0.447997808456,0.368667125702,4.04037690163,0.387119054794,0.335952043533,4.42749595642,0.501812934875,0.455615997314,4.9293088913,0.667311191559,0.61871099472,5.59662008286,,,,,,,,,,,,,,,,,,,,,,,j,1,0.587466955185,f,1,1.94391608238,,,,None,None,,,,,,,,,,,,,,,,,,,1,5,4,60.31186191108887,Dissertation,2018_Jul_20_1543,4,
,,1,,,Verdadero,Falso,f,A,congruent_left,The boy,0,0,0,0,f,0,303,a,,,,,,,,,,,,,,,,,,,,,,,,,1,0,1,0,0,0,0,62,,,,,,,,,,,,,,,,,,,,,,,,,,,,,,,,,,,,,,,,,,,,,,,,,,,,,,,,,,,,,,,,,,,,,,,,,None,0,,None,0,,,,,None,None,,,,,,,,,,,,,,space,199.838070154,,,,1,5,4,60.31186191108887,Dissertation,2018_Jul_20_1543,4,
,,1,,,Verdadero,Falso,f,A,congruent_left,Los autobuses en Madrid tienen más de quince pies de altura ,0,0,0,0,f,0,225,Los autobuses madrileños son muy altos.,,,,,,,,,,,,,,,,,,,,,,,,,1,0,1,0,0,1,1,54,,,,,,,,,,,,,,,,,,0.600353002548,0.560397148132,0.600353002548,0.351171016693,0.30123090744,0.951524019241,0.3005900383,0.234210014343,1.25211405754,0.26726102829,0.222990989685,1.51937508583,0.249765872955,0.186233997345,1.76914095879,0.301080942154,0.234160900116,2.07022190094,0.300554990768,0.251886129379,2.37077689171,0.301668167114,0.250567913055,2.67244505882,0.283664941788,0.2380900383,2.95611000061,0.268677949905,0.204907894135,3.22478795052,0.71857714653,0.674310922623,3.94336509705,,,,,,,,,,,,,,,,,,,,,,,f,1,0.505728006363,f,1,3.54556179047,,,,None,None,,,,,,,,,,,,,,,,,,,1,5,4,60.31186191108887,Dissertation,2018_Jul_20_1543,4,
,,1,,,Verdadero,Falso,f,A,congruent_right,The boy,0,0,0,0,j,0,304,a,,,,,,,,,,,,,,,,,,,,,,,,,1,0,1,0,0,2,2,63,,,,,,,,,,,,,,,,,,,,,,,,,,,,,,,,,,,,,,,,,,,,,,,,,,,,,,,,,,,,,,,,,,,,,,,,,j,1,0.456919908524,None,0,,,,,None,None,,,,,,,,,,,,,,,,,,,1,5,4,60.31186191108887,Dissertation,2018_Jul_20_1543,4,
,,0,,,Verdadero,Falso,f,A,single_left,The boy,0,0,0,1,f,0,309,a,,,,,,,,,,,,,,,,,,,,,,,,,1,0,1,0,0,3,3,68,,,,,,,,,,,,,,,,,,,,,,,,,,,,,,,,,,,,,,,,,,,,,,,,,,,,,,,,,,,,,,,,,,,,,,,,,f,1,0.489616155624,None,0,,,,,None,None,,,,,,,,,,,,,,,,,,,1,5,4,60.31186191108887,Dissertation,2018_Jul_20_1543,4,
,,0,,,Verdadero,Falso,f,A,single_right,Mi hermana guardó en su celular el número del chico guapo,0,0,0,1,j,0,208,A mi hermana le gustaría salir con el chico.,,,,,,,,,,,,,,,,,,,,,,,,,1,0,1,0,0,4,4,37,,,,,,,,,,,,,,,,,,0.568355083466,0.525408983231,0.568355083466,0.250121116638,0.184635162354,0.818476200104,0.23453783989,0.172122955322,1.05301403999,0.234545946121,0.171387195587,1.28755998611,0.267443180084,0.206286907196,1.5550031662,0.334488868713,0.271387815475,1.88949203491,0.250871181488,0.188492059708,2.1403632164,0.417100906372,0.351428985596,2.55746412277,0.333359956741,0.270400047302,2.89082407951,0.284286022186,0.236083984375,3.1751101017,0.284143924713,0.237776994705,3.45925402641,,,,,,,,,,,,,,,,,,,,,,,j,1,0.389425992966,f,1,2.69038701057,,,,None,None,,,,,,,,,,,,,,,,,,,1,5,4,60.31186191108887,Dissertation,2018_Jul_20_1543,4,
,,0,,,Verdadero,Falso,j,A,single_right,El señor gordo tomó un café solo,0,0,0,1,j,0,228,El señor estaba solo cuando bebió el café.,,,,,,,,,,,,,,,,,,,,,,,,,1,0,1,0,0,5,5,57,,,,,,,,,,,,,,,,,,0.500972986221,0.479482889175,0.500972986221,0.249431848526,0.203826904297,0.750404834747,0.251627206802,0.204186916351,1.00203204155,0.19948887825,0.153930187225,1.2015209198,0.25026011467,0.220026016235,1.45178103447,0.903611898422,0.857100963593,2.35539293289,0.568217039108,0.523653030396,2.923609972,,,,,,,,,,,,,,,,,,,,,,,,,,,,,,,,,,,j,1,0.403208971024,f,0,3.71160697937,,,,None,None,,,,,,,,,,,,,,,,,,,1,5,4,60.31186191108887,Dissertation,2018_Jul_20_1543,4,
,,0,,,Verdadero,Falso,j,A,single_left,La participante brilló cuando ganó el maratón,0,0,0,1,f,0,218,La participante se quedó triste después del maratón.,,,,,,,,,,,,,,,,,,,,,,,,,1,0,1,0,0,6,6,47,,,,,,,,,,,,,,,,,,0.53418803215,0.506280899048,0.53418803215,0.384191989899,0.334398984909,0.918380022049,0.282736063004,0.238066911697,1.20111608505,1.40536594391,1.35762095451,2.60648202896,0.45082616806,0.40518784523,3.05730819702,0.685319900513,0.639410972595,3.74262809753,0.384371042252,0.3379778862,4.12699913979,,,,,,,,,,,,,,,,,,,,,,,,,,,,,,,,,,,f,1,0.451924800873,j,1,3.74747204781,,,,None,None,,,,,,,,,,,,,,,,,,,1,5,4,60.31186191108887,Dissertation,2018_Jul_20_1543,4,
,,0,,,Verdadero,Falso,j,A,single_right,Las flores en mi apartamento hacen que la sala brille,0,0,0,1,j,0,224,No tengo plantas en mi apartamento por mis alergias.,,,,,,,,,,,,,,,,,,,,,,,,,1,0,1,0,0,7,7,53,,,,,,,,,,,,,,,,,,0.167001962662,0.132972002029,0.167001962662,0.434563875198,0.386193037033,0.60156583786,0.218514204025,0.171032905579,0.820080041885,0.550677776337,0.504529953003,1.37075781822,0.384486198425,0.337599039078,1.75524401665,0.516394853592,0.46920800209,2.27163887024,0.587035179138,0.539149999619,2.85867404938,0.433981895447,0.387679815292,3.29265594482,0.301313877106,0.25484418869,3.59396982193,0.400439023972,0.355358123779,3.9944088459,,,,,,,,,,,,,,,,,,,,,,,,,,j,1,0.438799858093,j,1,3.77635884285,,,,None,None,,,,,,,,,,,,,,,,,,,1,5,4,60.31186191108887,Dissertation,2018_Jul_20_1543,4,
,,0,,,Verdadero,Falso,j,A,single_right,Cuando Dora ganó la lotería se compró un reloj de diamantes,0,0,0,1,j,0,216,Dora ahorró todo el dinero que ganó. ,,,,,,,,,,,,,,,,,,,,,,,,,1,0,1,0,0,8,8,45,,,,,,,,,,,,,,,,,,0.484079122543,0.440390110016,0.484079122543,0.267225980759,0.221567153931,0.751305103302,0.26745390892,0.220856189728,1.01875901222,0.301499128342,0.239128828049,1.32025814056,0.349342823029,0.303349971771,1.66960096359,0.285117149353,0.237935066223,1.95471811295,0.35095000267,0.288631916046,2.30566811562,0.401063919067,0.338307142258,2.70673203468,0.433407068253,0.386095046997,3.14013910294,0.569605827332,0.504425048828,3.70974493027,0.417259216309,0.355038881302,4.12700414658,,,,,,,,,,,,,,,,,,,,,,,j,1,0.555325031281,j,1,2.79263997078,,,,None,None,,,,,,,,,,,,,,,,,,,1,5,4,60.31186191108887,Dissertation,2018_Jul_20_1543,4,
,,0,,,Verdadero,Falso,f,A,single_left,The boy,0,0,0,1,f,0,314,a,,,,,,,,,,,,,,,,,,,,,,,,,1,0,1,0,0,9,9,73,,,,,,,,,,,,,,,,,,,,,,,,,,,,,,,,,,,,,,,,,,,,,,,,,,,,,,,,,,,,,,,,,,,,,,,,,f,1,1.55260396004,None,0,,,,,None,None,,,,,,,,,,,,,,,,,,,1,5,4,60.31186191108887,Dissertation,2018_Jul_20_1543,4,
,,0,,,Verdadero,Falso,j,A,incongruent_right,Los artistas van a donar tres estatuas a la ciudad,0,0,1,0,j,0,203,La ciudad va a comprar las estatuas.,,,,,,,,,,,,,,,,,,,,,,,,,1,0,1,0,0,10,10,32,,,,,,,,,,,,,,,,,,0.501139879227,0.468832015991,0.501139879227,0.284646034241,0.238039016724,0.785785913467,0.501502037048,0.452777147293,1.28728795052,0.43371796608,0.369850873947,1.7210059166,0.384745121002,0.337319135666,2.1057510376,0.384768009186,0.33992099762,2.49051904678,0.517825841904,0.439544916153,3.00834488869,0.451779127121,0.38859796524,3.46012401581,0.433637857437,0.387450933456,3.89376187325,0.334438085556,0.289021968842,4.2281999588,,,,,,,,,,,,,,,,,,,,,,,,,,j,1,0.773967981339,j,1,2.2567460537,,,,None,None,,,,,,,,,,,,,,,,,,,1,5,4,60.31186191108887,Dissertation,2018_Jul_20_1543,4,
,,1,,,Verdadero,Falso,f,A,congruent_left,Justo después de bajarme el autobús falló de repente ,0,0,0,0,f,0,213,Deben mandar el autobús al mecánico.,,,,,,,,,,,,,,,,,,,,,,,,,1,0,1,0,0,11,11,42,,,,,,,,,,,,,,,,,,0.483813047409,0.45557308197,0.483813047409,0.250849962234,0.202208995819,0.734663009644,0.302093982697,0.251446962357,1.03675699234,0.466457128525,0.419935941696,1.50321412086,0.302633047104,0.251662015915,1.80584716797,0.317013978958,0.270802974701,2.12286114693,0.234541893005,0.184504032135,2.35740303993,0.249952077866,0.203972101212,2.6073551178,0.234036922455,0.187661886215,2.84139204025,,,,,,,,,,,,,,,,,,,,,,,,,,,,,f,1,0.401883125305,f,1,5.56778097153,,,,None,None,,,,,,,,,,,,,,,,,,,1,5,4,60.31186191108887,Dissertation,2018_Jul_20_1543,4,
,,0,,,Verdadero,Falso,f,A,incongruent_right,Los trabajadores colocaron los avisos que su jefe les dejó en la carpeta en la puerta de la oficina,1,1,1,0,j,1,20,Los avisos están colgados en la puerta.,,,,,,,,,,,,,,,,,,,,,,,,,1,0,1,0,0,12,12,19,,,,,,,,,,,,,,,,,,0.0622811317444,0.00244307518005,0.0622811317444,0.606822967529,0.536821126938,0.669104099274,0.21681189537,0.138079881668,0.885915994644,0.249469995499,0.171443939209,1.13538599014,0.468870162964,0.389710903168,1.60425615311,0.284193992615,0.2188539505,1.88845014572,0.267651796341,0.186048984528,2.15610194206,0.283621072769,0.205613136292,2.43972301483,0.250066995621,0.169572114944,2.68979001045,0.266870975494,0.186382055283,2.95666098595,0.250261068344,0.18619799614,3.20692205429,0.234288930893,0.169956922531,3.44121098518,0.250756978989,0.169415950775,3.69196796417,0.250555992126,0.185525178909,3.9425239563,,,,0.235323190689,0.171602964401,4.17784714699,0.282552957535,0.201706886292,4.46040010452,,,,,j,1,0.472277879715,f,1,2.97946000099,,,,None,None,0.2681620121,0.203278064728,4.72856211662,0.3502368927,0.285181045532,5.07879900932,0.250918149948,0.186587810516,5.32971715927,,,,,,,,,,1,5,4,60.31186191108887,Dissertation,2018_Jul_20_1543,4,
,,0,,,Verdadero,Falso,j,A,incongruent_left,El arquitecto puso los documentos que sus compañeros le dejaron encima de la mesa para verlos bien,0,1,1,0,f,0,135,El arquitecto no revisó los documentos.,,,,,,,,,,,,,,,,,,,,,,,,,1,0,1,0,0,13,13,27,,,,,,,,,,,,,,,,,,0.652781009674,0.606372117996,0.652781009674,0.234076023102,0.156354188919,0.886857032776,0.284027099609,0.217998981476,1.17088413239,0.299752950668,0.220679044724,1.47063708305,0.318795919418,0.254681110382,1.78943300247,0.266684055328,0.205795049667,2.0561170578,0.351333141327,0.28785610199,2.40745019913,0.316178798676,0.237153053284,2.7236289978,0.334946155548,0.270669937134,3.05857515335,0.368469953537,0.288534879684,3.42704510689,0.383040904999,0.283620119095,3.81008601189,0.368484020233,0.30447602272,4.17857003212,0.367958068848,0.287996053696,4.54652810097,0.284420967102,0.205433130264,4.83094906807,,,,0.316571950912,0.25251698494,5.14752101898,0.384970188141,0.306066989899,5.53249120712,,,,,f,1,0.570401191711,j,1,2.96322393417,,,,None,None,0.886094808578,0.822818994522,6.4185860157,,,,,,,,,,,,,,,,1,5,4,60.31186191108887,Dissertation,2018_Jul_20_1543,4,
,,0,,,Verdadero,Falso,f,A,incongruent_left,El mesero vació el vino que los clientes dejaron en la mesa en el fregadero después de que se fueron,1,1,1,0,f,1,17,Los clientes se fueron sin tomar todo el vino. ,,,,,,,,,,,,,,,,,,,,,,,,,1,0,1,0,0,14,14,16,,,,,,,,,,,,,,,,,,0.117648124695,0.0655860900879,0.117648124695,0.467216014862,0.388442993164,0.584864139557,0.233871936798,0.136482954025,0.818736076355,0.267977952957,0.187992095947,1.08671402931,0.60183095932,0.522590875626,1.68854498863,0.266353130341,0.187200069427,1.95489811897,0.316931962967,0.23570895195,2.27183008194,0.302207946777,0.220678806305,2.57403802872,0.318054914474,0.254377126694,2.89209294319,0.316475152969,0.253969907761,3.20856809616,0.402010917664,0.305438995361,3.61057901382,0.300935983658,0.218214988708,3.91151499748,0.31649017334,0.25611281395,4.22800517082,0.318084955215,0.237891197205,4.54609012604,,,,0.300776004791,0.237587928772,4.84686613083,0.266876935959,0.1888859272,5.11374306679,,,,,f,1,0.504248857498,f,1,3.16429615021,,,,None,None,0.318222045898,0.235108852386,5.43196511269,0.300619840622,0.223927974701,5.73258495331,0.217481136322,0.138216018677,5.95006608963,0.284179925919,0.206072092056,6.23424601555,,,,,,,1,5,4,60.31186191108887,Dissertation,2018_Jul_20_1543,4,
,,0,,,Verdadero,Falso,f,A,incongruent_right,Los pintores colocaron el cuadro que su colega dejó en la oficina privada antes de su exhibición,0,1,1,0,j,0,138,Los pintores solo querían sus propias obras en la exhbición.,,,,,,,,,,,,,,,,,,,,,,,,,1,0,1,0,0,15,15,28,,,,,,,,,,,,,,,,,,0.24947309494,0.197606086731,0.24947309494,0.402955055237,0.334352016449,0.652428150177,0.300622940063,0.223610162735,0.95305109024,0.266226053238,0.186715126038,1.21927714348,0.300911903381,0.235806941986,1.52018904686,0.317817926407,0.253977060318,1.83800697327,0.335384130478,0.272316932678,2.17339110374,0.332273006439,0.253782987595,2.50566411018,0.302721977234,0.237799167633,2.80838608742,0.316516876221,0.254137039185,3.12490296364,0.350576162338,0.284147977829,3.47547912598,0.601012945175,0.520379066467,4.07649207115,0.936357021332,0.855493068695,5.01284909248,0.619297981262,0.555588960648,5.63214707375,,,,0.801917076111,0.738514900208,6.43406414986,0.501523971558,0.404907941818,6.93558812141,,,,,j,1,0.789088964462,f,1,5.5641720295,,,,None,None,0.35023188591,0.270076036453,7.28582000732,,,,,,,,,,,,,,,,1,5,4,60.31186191108887,Dissertation,2018_Jul_20_1543,4,
,,0,,,Verdadero,Falso,f,A,incongruent_left,Las chicas pusieron la sopa que su mamá preparó en la mesa antes de comer,0,1,1,0,f,0,139,Van a comer sopa.,,,,,,,,,,,,,,,,,,,,,,,,,1,0,1,0,0,16,16,29,,,,,,,,,,,,,,,,,,0.165019989014,0.122490167618,0.165019989014,0.402981996536,0.335007190704,0.56800198555,0.267085075378,0.205235004425,0.835087060928,0.349575996399,0.287861824036,1.18466305733,0.419093132019,0.371630191803,1.60375618935,0.517997980118,0.453683853149,2.12175416946,0.417685985565,0.356496095657,2.53944015503,0.432760000229,0.369186878204,2.97220015526,0.435451984406,0.38770699501,3.40765213966,0.351311922073,0.289305925369,3.75896406174,0.384307146072,0.322185993195,4.14327120781,0.4001288414,0.336381912231,4.54340004921,0.351118087769,0.286912918091,4.89451813698,1.35451388359,1.27039480209,6.24903202057,,,,0.416696071625,0.353276968002,6.66572809219,,,,,,,,j,0,0.504853010178,f,1,4.36570715904,,,,None,None,,,,,,,,,,,,,,,,,,,1,5,4,60.31186191108887,Dissertation,2018_Jul_20_1543,4,
,,0,,,Verdadero,Falso,f,A,single_right,The boy,0,0,0,1,j,0,306,a,,,,,,,,,,,,,,,,,,,,,,,,,1,0,1,0,0,17,17,65,,,,,,,,,,,,,,,,,,,,,,,,,,,,,,,,,,,,,,,,,,,,,,,,,,,,,,,,,,,,,,,,,,,,,,,,,j,1,0.468929052353,None,0,,,,,None,None,,,,,,,,,,,,,,,,,,,1,5,4,60.31186191108887,Dissertation,2018_Jul_20_1543,4,
,,0,,,Verdadero,Falso,j,A,single_left,Los estudiantes hicieron el trabajo en equipo en la biblioteca,0,0,0,1,f,0,202,Los estudiantes hicieron la tarea en el café.,,,,,,,,,,,,,,,,,,,,,,,,,1,0,1,0,0,18,18,31,,,,,,,,,,,,,,,,,,0.533541202545,0.495497941971,0.533541202545,0.333113908768,0.286810874939,0.866655111313,0.351245880127,0.288285970688,1.21790099144,0.384448051453,0.338392972946,1.60234904289,0.384560108185,0.320671081543,1.98690915108,0.400059938431,0.353707075119,2.38696908951,0.317630052567,0.26988196373,2.70459914207,0.317512989044,0.234385967255,3.02211213112,0.384340047836,0.301168203354,3.40645217896,0.41823387146,0.368315935135,3.82468605042,,,,,,,,,,,,,,,,,,,,,,,,,,f,1,0.572633981705,j,1,2.81103992462,,,,None,None,,,,,,,,,,,,,,,,,,,1,5,4,60.31186191108887,Dissertation,2018_Jul_20_1543,4,
,,0,,,Verdadero,Falso,f,A,single_left,The boy,0,0,0,1,f,0,301,a,,,,,,,,,,,,,,,,,,,,,,,,,1,0,1,0,0,19,19,60,,,,,,,,,,,,,,,,,,,,,,,,,,,,,,,,,,,,,,,,,,,,,,,,,,,,,,,,,,,,,,,,,,,,,,,,,f,1,0.440191030502,None,0,,,,,None,None,,,,,,,,,,,,,,,,,,,1,5,4,60.31186191108887,Dissertation,2018_Jul_20_1543,4,
,,0,,,Verdadero,Falso,f,A,single_right,El cocinero lava las verduras en el fregadero,0,0,0,1,j,0,204,El cocinero prepara las verduras él mismo.,,,,,,,,,,,,,,,,,,,,,,,,,1,0,1,0,0,20,20,33,,,,,,,,,,,,,,,,,,0.499519109726,0.46914100647,0.499519109726,0.251174926758,0.204922199249,0.750694036484,0.250638961792,0.204311847687,1.00133299828,0.317219018936,0.253817081451,1.31855201721,0.250575065613,0.207380056381,1.56912708282,0.300035953522,0.220776081085,1.86916303635,0.300706148148,0.236525774002,2.16986918449,0.618666887283,0.569815158844,2.78853607178,,,,,,,,,,,,,,,,,,,,,,,,,,,,,,,,j,1,0.387532949448,f,1,3.82961201668,,,,None,None,,,,,,,,,,,,,,,,,,,1,5,4,60.31186191108887,Dissertation,2018_Jul_20_1543,4,
,,0,,,Verdadero,Falso,f,A,incongruent_left,The boy,0,0,1,0,f,0,313,a,,,,,,,,,,,,,,,,,,,,,,,,,1,0,1,0,0,21,21,72,,,,,,,,,,,,,,,,,,,,,,,,,,,,,,,,,,,,,,,,,,,,,,,,,,,,,,,,,,,,,,,,,,,,,,,,,f,1,0.600610017776,None,0,,,,,None,None,,,,,,,,,,,,,,,,,,,1,5,4,60.31186191108887,Dissertation,2018_Jul_20_1543,4,
,,1,,,Verdadero,Falso,f,A,congruent_left,The boy,0,0,0,0,f,0,311,a,,,,,,,,,,,,,,,,,,,,,,,,,1,0,1,0,0,22,22,70,,,,,,,,,,,,,,,,,,,,,,,,,,,,,,,,,,,,,,,,,,,,,,,,,,,,,,,,,,,,,,,,,,,,,,,,,f,1,0.500848054886,None,0,,,,,None,None,,,,,,,,,,,,,,,,,,,1,5,4,60.31186191108887,Dissertation,2018_Jul_20_1543,4,
,,1,,,Verdadero,Falso,j,A,congruent_left,Cuando los jardineros terminaron el jardín quedó lleno de flores,1,1,0,0,f,0,10,Los jardineros todavía no acaban su trabajo.,,,,,,,,,,,,,,,,,,,,,,,,,1,0,1,0,0,23,23,9,,,,,,,,,,,,,,,,,,0.231591939926,0.194875955582,0.231591939926,0.35227394104,0.305840969086,0.583865880966,0.301154136658,0.254984855652,0.885020017624,0.284189939499,0.222740888596,1.16920995712,0.282850027084,0.219043970108,1.45205998421,0.602804899216,0.551670074463,2.05486488342,0.350170135498,0.304103136063,2.40503501892,0.384849786758,0.323756933212,2.78988480568,0.468067169189,0.401410102844,3.25795197487,0.466377019882,0.418917894363,3.72432899475,,,,,,,,,,,,,,,,,,,,,,,,,,f,1,0.45547914505,j,1,2.39103913307,,,,None,None,,,,,,,,,,,,,,,,,,,1,5,4,60.31186191108887,Dissertation,2018_Jul_20_1543,4,
,,0,,,Verdadero,Falso,f,A,single_right,The boy,0,0,0,1,j,0,302,a,,,,,,,,,,,,,,,,,,,,,,,,,1,0,1,0,0,24,24,61,,,,,,,,,,,,,,,,,,,,,,,,,,,,,,,,,,,,,,,,,,,,,,,,,,,,,,,,,,,,,,,,,,,,,,,,,f,0,0.353253126144,None,0,,,,,None,None,,,,,,,,,,,,,,,,,,,1,5,4,60.31186191108887,Dissertation,2018_Jul_20_1543,4,
,,0,,,Verdadero,Falso,f,A,incongruent_left,Después de que comieron el pollo se enfrió inmediatamente ,1,1,1,0,f,1,1,Comieron el pollo caliente.,,,,,,,,,,,,,,,,,,,,,,,,,1,0,1,0,0,25,25,0,,,,,,,,,,,,,,,,,,0.533431053162,0.496854066849,0.533431053162,0.299757957458,0.234035968781,0.83318901062,0.267399072647,0.218820095062,1.10058808327,0.285269975662,0.23494887352,1.38585805893,0.251039981842,0.204627990723,1.63689804077,0.434325933456,0.388720989227,2.07122397423,0.651311159134,0.588515043259,2.72253513336,0.40057182312,0.353898048401,3.12310695648,0.53563117981,0.469428062439,3.65873813629,,,,,,,,,,,,,,,,,,,,,,,,,,,,,f,1,0.722017049789,j,0,6.85631012917,,,,None,None,,,,,,,,,,,,,,,,,,,1,5,4,60.31186191108887,Dissertation,2018_Jul_20_1543,4,
,,1,,,Verdadero,Falso,j,A,congruent_left,Antes de que cantaran esa canción no era muy conocida ,1,1,0,0,f,0,6,Todos ya se sabían la canción antes de la fiesta.,,,,,,,,,,,,,,,,,,,,,,,,,1,0,1,0,0,26,26,5,,,,,,,,,,,,,,,,,,0.581619977951,0.548509120941,0.581619977951,0.269325971603,0.218184947968,0.850945949554,0.23367190361,0.187313079834,1.08461785316,0.28444814682,0.234753131866,1.36906599998,0.233759880066,0.187585115433,1.60282588005,0.500569105148,0.454494953156,2.1033949852,0.500612020493,0.437761068344,2.60400700569,0.434580802917,0.354880094528,3.03858780861,0.350789070129,0.270732879639,3.38937687874,0.334408998489,0.236650943756,3.72378587723,,,,,,,,,,,,,,,,,,,,,,,,,,f,1,0.469263076782,j,1,3.67757415771,,,,None,None,,,,,,,,,,,,,,,,,,,1,5,4,60.31186191108887,Dissertation,2018_Jul_20_1543,4,
