MatchingSection,ColumnA,ColumnF,ColumnJ,ColumnSemicolon,Translation,CorrectAnswer,Training,TrainingFull,imagename,Counterbalance,blocks.thisRepN,blocks.thisTrialN,blocks.thisN,blocks.thisIndex,repeatTrainingloop.thisRepN,repeatTrainingloop.thisTrialN,repeatTrainingloop.thisN,repeatTrainingloop.thisIndex,learningLoop.thisRepN,learningLoop.thisTrialN,learningLoop.thisN,learningLoop.thisIndex,repeatloop.thisRepN,repeatloop.thisTrialN,repeatloop.thisN,repeatloop.thisIndex,loop1.thisRepN,loop1.thisTrialN,loop1.thisN,loop1.thisIndex,ContinueSpace.keys,ContinueSpace.rt,key_resp_3.keys,key_resp_3.rt,keyresponse4.keys,keyresponse4.corr,keyresponse4.rt,ContinueSpace2.keys,ContinueSpace2.rt,keyresponse.keys,keyresponse.corr,keyresponse.rt,key_resp_5.keys,key_resp_5.rt,participant,session,group,date,expName,frameRate,
,,,,,,,,,,,,,,,,,,,,,,,,,,,,,,,space,7.80168415303342,,,,,,,,,,,,,9,001,2,2018_Oct_04_1232,VocabTraining,59.36547368868117,
el mecánico?,colocar,mecánico,cocinero,adivinar,mechanic,f,None,el mecánico,mecánico,1,0,0,0,0,0,0,0,0,0,0,0,7,,,,,,,,,,,space,44.50044499797514,,,,,,,,,,,9,001,2,2018_Oct_04_1232,VocabTraining,59.36547368868117,
rellenar?,terminar,rellenar,buzón,brillar,to fill,f,None,rellenar,rellenar,1,0,0,0,0,0,0,0,0,0,1,1,5,,,,,,,,,,,space,5.089223139977548,,,,,,,,,,,9,001,2,2018_Oct_04_1232,VocabTraining,59.36547368868117,
resonar?,brillar,colocar,resonar,pastel,"to resound, to resonate",j,None,resonar,resonar,1,0,0,0,0,0,0,0,0,0,2,2,14,,,,,,,,,,,space,5.548157717974391,,,,,,,,,,,9,001,2,2018_Oct_04_1232,VocabTraining,59.36547368868117,
brillar?,banda,brillar,pastel,enfriar,shine,f,None,brillar,brillar,1,0,0,0,0,0,0,0,0,0,3,3,9,,,,,,,,,,,space,6.087518536951393,,,,,,,,,,,9,001,2,2018_Oct_04_1232,VocabTraining,59.36547368868117,
aparcar?,montar,aparcar,lavaplatos,rendirse,park,f,None,aparcar,aparcar,1,0,0,0,0,0,0,0,0,0,4,4,8,,,,,,,,,,,space,4.453637569968123,,,,,,,,,,,9,001,2,2018_Oct_04_1232,VocabTraining,59.36547368868117,
el pastel?,pastel,sonar,banda,aparcar,cake,a,None,el pastel,pastel,1,0,0,0,0,0,0,0,0,0,5,5,4,,,,,,,,,,,space,2.224519834970124,,,,,,,,,,,9,001,2,2018_Oct_04_1232,VocabTraining,59.36547368868117,
la pantalla?,cartera,pantalla,horno,fallar,screen,f,None,la pantalla,pantalla,1,0,0,0,0,0,0,0,0,0,6,6,6,,,,,,,,,,,space,1.691822107997723,,,,,,,,,,,9,001,2,2018_Oct_04_1232,VocabTraining,59.36547368868117,
terminar?,adivinar,banda,pantalla,terminar,to finish,semicolon,None,terminar,terminar,1,0,0,0,0,0,0,0,0,0,7,7,16,,,,,,,,,,,space,1.8903007819899358,,,,,,,,,,,9,001,2,2018_Oct_04_1232,VocabTraining,59.36547368868117,
rendirse?,mecánico,terminar,rendirse,cocinero,"to give up, to surrender",j,None,rendirse,rendirse,1,0,0,0,0,0,0,0,0,0,8,8,12,,,,,,,,,,,space,6.427346050040796,,,,,,,,,,,9,001,2,2018_Oct_04_1232,VocabTraining,59.36547368868117,
la cartera?,rendirse,buzón,mecánico,cartera,"wallet, handbag",semicolon,None,la cartera,cartera,1,0,0,0,0,0,0,0,0,0,9,9,17,,,,,,,,,,,space,2.9422426990349777,,,,,,,,,,,9,001,2,2018_Oct_04_1232,VocabTraining,59.36547368868117,
el horno?,horno,rendirse,cartera,rellenar,oven,a,None,el horno,horno,1,0,0,0,0,0,0,0,0,0,10,10,1,,,,,,,,,,,space,5.583101272990461,,,,,,,,,,,9,001,2,2018_Oct_04_1232,VocabTraining,59.36547368868117,
adivinar?,pantalla,fallar,adivinar,horno,to guess,j,None,adivinar,adivinar,1,0,0,0,0,0,0,0,0,0,11,11,11,,,,,,,,,,,space,2.2247619859990664,,,,,,,,,,,9,001,2,2018_Oct_04_1232,VocabTraining,59.36547368868117,
colocar?,enfriar,horno,aparcar,colocar,"to place, to hang",semicolon,None,colocar,colocar,1,0,0,0,0,0,0,0,0,0,12,12,18,,,,,,,,,,,space,9.12995716003934,,,,,,,,,,,9,001,2,2018_Oct_04_1232,VocabTraining,59.36547368868117,
la banda?,resonar,lavaplatos,sonar,banda,"band, group",semicolon,None,banda,banda,1,0,0,0,0,0,0,0,0,0,13,13,20,,,,,,,,,,,space,3.1216572929988615,,,,,,,,,,,9,001,2,2018_Oct_04_1232,VocabTraining,59.36547368868117,
sonar?,fallar,montar,rellenar,sonar,"to ring, to be heard",semicolon,None,sonar,sonar,1,0,0,0,0,0,0,0,0,0,14,14,15,,,,,,,,,,,space,5.216697272961028,,,,,,,,,,,9,001,2,2018_Oct_04_1232,VocabTraining,59.36547368868117,
fallar?,rellenar,resonar,fallar,buzón,to break down,j,None,fallar,fallar,1,0,0,0,0,0,0,0,0,0,15,15,10,,,,,,,,,,,space,4.969338127004448,,,,,,,,,,,9,001,2,2018_Oct_04_1232,VocabTraining,59.36547368868117,
el cocinero?,cocinero,enfriar,colocar,pantalla,cook,a,None,el cocinero,cocinero,1,0,0,0,0,0,0,0,0,0,16,16,2,,,,,,,,,,,space,4.712649810011499,,,,,,,,,,,9,001,2,2018_Oct_04_1232,VocabTraining,59.36547368868117,
el buzón?,buzón,adivinar,terminar,resonar,mailbox,a,None,el buzón,buzón,1,0,0,0,0,0,0,0,0,0,17,17,0,,,,,,,,,,,space,8.45628958195448,,,,,,,,,,,9,001,2,2018_Oct_04_1232,VocabTraining,59.36547368868117,
el lavaplatos?,lavaplatos,pastel,montar,mecánico,dishwasher,a,None,el lavaplatos,lavaplatos,1,0,0,0,0,0,0,0,0,0,18,18,3,,,,,,,,,,,space,2.512262955016922,,,,,,,,,,,9,001,2,2018_Oct_04_1232,VocabTraining,59.36547368868117,
enfriar?,aparcar,cartera,enfriar,lavaplatos,"to chill, to cool down",j,None,enfriar,enfriar,1,0,0,0,0,0,0,0,0,0,19,19,13,,,,,,,,,,,space,3.195589670969639,,,,,,,,,,,9,001,2,2018_Oct_04_1232,VocabTraining,59.36547368868117,
montar?,sonar,cocinero,brillar,montar,to assemble,semicolon,None,montar,montar,1,0,0,0,0,0,0,0,0,0,20,20,19,,,,,,,,,,,space,7.141198855009861,,,,,,,,,,,9,001,2,2018_Oct_04_1232,VocabTraining,59.36547368868117,
,,,,,,,,,,,0,0,0,0,0,0,0,0,,,,,,,,,,,,,,,,,j,1,5.816470804042183,,,,,,,,9,001,2,2018_Oct_04_1232,VocabTraining,59.36547368868117,
la cartera?,rendirse,buzón,mecánico,cartera,"wallet, handbag",semicolon,None,la cartera,cartera,1,0,0,0,0,,,,,,,,,0,0,0,0,0,0,0,17,,,,,,,,space,3.2297340650111437,semicolon,1,3.927468807029072,,,9,001,2,2018_Oct_04_1232,VocabTraining,59.36547368868117,
sonar?,fallar,montar,rellenar,sonar,"to ring, to be heard",semicolon,None,sonar,sonar,1,0,0,0,0,,,,,,,,,0,0,0,0,0,1,1,15,,,,,,,,,,semicolon,1,3.5423857280402444,,,9,001,2,2018_Oct_04_1232,VocabTraining,59.36547368868117,
adivinar?,pantalla,fallar,adivinar,horno,to guess,j,None,adivinar,adivinar,1,0,0,0,0,,,,,,,,,0,0,0,0,0,2,2,11,,,,,,,,,,j,1,2.3424521559500135,,,9,001,2,2018_Oct_04_1232,VocabTraining,59.36547368868117,
el horno?,horno,rendirse,cartera,rellenar,oven,a,None,el horno,horno,1,0,0,0,0,,,,,,,,,0,0,0,0,0,3,3,1,,,,,,,,,,a,1,1.7782440410228446,,,9,001,2,2018_Oct_04_1232,VocabTraining,59.36547368868117,
resonar?,brillar,colocar,resonar,pastel,"to resound, to resonate",j,None,resonar,resonar,1,0,0,0,0,,,,,,,,,0,0,0,0,0,4,4,14,,,,,,,,,,j,1,2.1981068999739364,,,9,001,2,2018_Oct_04_1232,VocabTraining,59.36547368868117,
el pastel?,pastel,sonar,banda,aparcar,cake,a,None,el pastel,pastel,1,0,0,0,0,,,,,,,,,0,0,0,0,0,5,5,4,,,,,,,,,,a,1,1.2081135949702002,,,9,001,2,2018_Oct_04_1232,VocabTraining,59.36547368868117,
el lavaplatos?,lavaplatos,pastel,montar,mecánico,dishwasher,a,None,el lavaplatos,lavaplatos,1,0,0,0,0,,,,,,,,,0,0,0,0,0,6,6,3,,,,,,,,,,a,1,1.1219063969911076,,,9,001,2,2018_Oct_04_1232,VocabTraining,59.36547368868117,
terminar?,adivinar,banda,pantalla,terminar,to finish,semicolon,None,terminar,terminar,1,0,0,0,0,,,,,,,,,0,0,0,0,0,7,7,16,,,,,,,,,,semicolon,1,1.8394012299831957,,,9,001,2,2018_Oct_04_1232,VocabTraining,59.36547368868117,
la banda?,resonar,lavaplatos,sonar,banda,"band, group",semicolon,None,banda,banda,1,0,0,0,0,,,,,,,,,0,0,0,0,0,8,8,20,,,,,,,,,,semicolon,1,1.4755790249910206,,,9,001,2,2018_Oct_04_1232,VocabTraining,59.36547368868117,
aparcar?,montar,aparcar,lavaplatos,rendirse,park,f,None,aparcar,aparcar,1,0,0,0,0,,,,,,,,,0,0,0,0,0,9,9,8,,,,,,,,,,f,1,1.4828144750208594,,,9,001,2,2018_Oct_04_1232,VocabTraining,59.36547368868117,
montar?,sonar,cocinero,brillar,montar,to assemble,semicolon,None,montar,montar,1,0,0,0,0,,,,,,,,,0,0,0,0,0,10,10,19,,,,,,,,,,semicolon,1,1.8910525499959476,,,9,001,2,2018_Oct_04_1232,VocabTraining,59.36547368868117,
fallar?,rellenar,resonar,fallar,buzón,to break down,j,None,fallar,fallar,1,0,0,0,0,,,,,,,,,0,0,0,0,0,11,11,10,,,,,,,,,,j,1,2.1939457720145583,,,9,001,2,2018_Oct_04_1232,VocabTraining,59.36547368868117,
el cocinero?,cocinero,enfriar,colocar,pantalla,cook,a,None,el cocinero,cocinero,1,0,0,0,0,,,,,,,,,0,0,0,0,0,12,12,2,,,,,,,,,,a,1,1.3255564700230025,,,9,001,2,2018_Oct_04_1232,VocabTraining,59.36547368868117,
rellenar?,terminar,rellenar,buzón,brillar,to fill,f,None,rellenar,rellenar,1,0,0,0,0,,,,,,,,,0,0,0,0,0,13,13,5,,,,,,,,,,f,1,3.982356148015242,,,9,001,2,2018_Oct_04_1232,VocabTraining,59.36547368868117,
colocar?,enfriar,horno,aparcar,colocar,"to place, to hang",semicolon,None,colocar,colocar,1,0,0,0,0,,,,,,,,,0,0,0,0,0,14,14,18,,,,,,,,,,semicolon,1,1.9442036660038866,,,9,001,2,2018_Oct_04_1232,VocabTraining,59.36547368868117,
rendirse?,mecánico,terminar,rendirse,cocinero,"to give up, to surrender",j,None,rendirse,rendirse,1,0,0,0,0,,,,,,,,,0,0,0,0,0,15,15,12,,,,,,,,,,j,1,1.2883480690070428,,,9,001,2,2018_Oct_04_1232,VocabTraining,59.36547368868117,
brillar?,banda,brillar,pastel,enfriar,shine,f,None,brillar,brillar,1,0,0,0,0,,,,,,,,,0,0,0,0,0,16,16,9,,,,,,,,,,f,1,1.4258648509858176,,,9,001,2,2018_Oct_04_1232,VocabTraining,59.36547368868117,
el mecánico?,colocar,mecánico,cocinero,adivinar,mechanic,f,None,el mecánico,mecánico,1,0,0,0,0,,,,,,,,,0,0,0,0,0,17,17,7,,,,,,,,,,f,1,1.5239104370120913,,,9,001,2,2018_Oct_04_1232,VocabTraining,59.36547368868117,
el buzón?,buzón,adivinar,terminar,resonar,mailbox,a,None,el buzón,buzón,1,0,0,0,0,,,,,,,,,0,0,0,0,0,18,18,0,,,,,,,,,,a,1,1.519967048021499,,,9,001,2,2018_Oct_04_1232,VocabTraining,59.36547368868117,
enfriar?,aparcar,cartera,enfriar,lavaplatos,"to chill, to cool down",j,None,enfriar,enfriar,1,0,0,0,0,,,,,,,,,0,0,0,0,0,19,19,13,,,,,,,,,,j,1,1.2091243719914928,,,9,001,2,2018_Oct_04_1232,VocabTraining,59.36547368868117,
la pantalla?,cartera,pantalla,horno,fallar,screen,f,None,la pantalla,pantalla,1,0,0,0,0,,,,,,,,,0,0,0,0,0,20,20,6,,,,,,,,,,f,1,1.4255293470341712,,,9,001,2,2018_Oct_04_1232,VocabTraining,59.36547368868117,
,,,,,,,,,,,0,0,0,0,,,,,,,,,0,0,0,0,,,,,,,,,,,,,,,,,,,9,001,2,2018_Oct_04_1232,VocabTraining,59.36547368868117,
,,,,,,,,,,,0,0,0,0,,,,,,,,,,,,,,,,,,,,,,,,,,,,,space,9.67402802297147,9,001,2,2018_Oct_04_1232,VocabTraining,59.36547368868117,
la biblia?,biblia,vaciar,escalera,maleta,bible,a,None,la biblia,biblia,1,1,0,1,0,0,0,0,0,0,0,0,4,,,,,,,,,,,space,8.274496926052961,,,,,,,,,,,9,001,2,2018_Oct_04_1232,VocabTraining,59.36547368868117,
el diamante?,diamante,copa,escenario,abrigo,diamond,a,None,el diamante,diamante,1,1,0,1,0,0,0,0,0,0,1,1,3,,,,,,,,,,,space,3.064157899993006,,,,,,,,,,,9,001,2,2018_Oct_04_1232,VocabTraining,59.36547368868117,
saltar la cuerda?,renunciar,saltarlacuerda,maratón,cuaderno,to jump rope,f,None,saltar la cuerda,saltarlacuerda,1,1,0,1,0,0,0,0,0,0,2,2,6,,,,,,,,,,,space,2.8242873619892634,,,,,,,,,,,9,001,2,2018_Oct_04_1232,VocabTraining,59.36547368868117,
la escalera?,escalera,cuaderno,renunciar,planos,staircase,a,None,la escalera,escalera,1,1,0,1,0,0,0,0,0,0,3,3,0,,,,,,,,,,,space,2.27419382694643,,,,,,,,,,,9,001,2,2018_Oct_04_1232,VocabTraining,59.36547368868117,
el cuaderno?,librero,sucio,cuaderno,jardinero,notebook,j,None,el cuaderno,cuaderno,1,1,0,1,0,0,0,0,0,0,4,4,11,,,,,,,,,,,space,5.704090871964581,,,,,,,,,,,9,001,2,2018_Oct_04_1232,VocabTraining,59.36547368868117,
el fregadero?,abrigo,renunciar,fregadero,maratón,kitchen sink,j,None,el fregadero,fregadero,1,1,0,1,0,0,0,0,0,0,5,5,12,,,,,,,,,,,space,7.8421972210053355,,,,,,,,,,,9,001,2,2018_Oct_04_1232,VocabTraining,59.36547368868117,
la maleta?,escenario,maleta,vaciar,copa,suitcase,f,None,la maleta,maleta,1,1,0,1,0,0,0,0,0,0,6,6,9,,,,,,,,,,,space,1.8893006599973887,,,,,,,,,,,9,001,2,2018_Oct_04_1232,VocabTraining,59.36547368868117,
el librero?,aviso,librero,diamante,fregadero,shelf,f,None,el librero,librero,1,1,0,1,0,0,0,0,0,0,7,7,7,,,,,,,,,,,space,3.728603727009613,,,,,,,,,,,9,001,2,2018_Oct_04_1232,VocabTraining,59.36547368868117,
vaciar?,cuaderno,escenario,planos,vaciar,to empty,semicolon,None,vaciar,vaciar,1,1,0,1,0,0,0,0,0,0,8,8,15,,,,,,,,,,,space,2.8952610249980353,,,,,,,,,,,9,001,2,2018_Oct_04_1232,VocabTraining,59.36547368868117,
el aviso?,copa,jardinero,abrigo,aviso,warning,semicolon,None,el aviso,aviso,1,1,0,1,0,0,0,0,0,0,9,9,18,,,,,,,,,,,space,4.166546130029019,,,,,,,,,,,9,001,2,2018_Oct_04_1232,VocabTraining,59.36547368868117,
algo sucio?,fregadero,biblia,saltarlacuerda,sucio,dirty,semicolon,None,sucio,sucio,1,1,0,1,0,0,0,0,0,0,10,10,16,,,,,,,,,,,space,1.45846359297866,,,,,,,,,,,9,001,2,2018_Oct_04_1232,VocabTraining,59.36547368868117,
el abrigo?,carpeta,abrigo,biblia,porche,coat,f,None,el abrigo,abrigo,1,1,0,1,0,0,0,0,0,0,11,11,8,,,,,,,,,,,space,1.5092869080253877,,,,,,,,,,,9,001,2,2018_Oct_04_1232,VocabTraining,59.36547368868117,
los planos?,sucio,planos,jardinero,monedas,"plans, blueprints",f,None,los planos,planos,1,1,0,1,0,0,0,0,0,0,12,12,5,,,,,,,,,,,space,2.0884338580071926,,,,,,,,,,,9,001,2,2018_Oct_04_1232,VocabTraining,59.36547368868117,
el jardinero?,jardinero,fregadero,aviso,saltarlacuerda,gardener,a,None,el jardinero,jardinero,1,1,0,1,0,0,0,0,0,0,13,13,1,,,,,,,,,,,space,3.013255696045235,,,,,,,,,,,9,001,2,2018_Oct_04_1232,VocabTraining,59.36547368868117,
el porche?,maleta,monedas,porche,diamante,porch,j,None,el porche,porche,1,1,0,1,0,0,0,0,0,0,14,14,13,,,,,,,,,,,space,4.030158770037815,,,,,,,,,,,9,001,2,2018_Oct_04_1232,VocabTraining,59.36547368868117,
la copa?,planos,carpeta,copa,biblia,wineglass,j,None,la copa,copa,1,1,0,1,0,0,0,0,0,0,15,15,14,,,,,,,,,,,space,2.9319771680166014,,,,,,,,,,,9,001,2,2018_Oct_04_1232,VocabTraining,59.36547368868117,
el maratón?,maratón,porche,carpeta,librero,marathon,a,None,el maratón,maratón,1,1,0,1,0,0,0,0,0,0,16,16,2,,,,,,,,,,,space,1.4409006119822152,,,,,,,,,,,9,001,2,2018_Oct_04_1232,VocabTraining,59.36547368868117,
las monedas?,saltarlacuerda,aviso,monedas,escalera,coins,j,None,las monedas,monedas,1,1,0,1,0,0,0,0,0,0,17,17,10,,,,,,,,,,,space,3.296415912976954,,,,,,,,,,,9,001,2,2018_Oct_04_1232,VocabTraining,59.36547368868117,
renunciar?,porche,escalera,librero,renunciar,to quit,semicolon,None,renunciar,renunciar,1,1,0,1,0,0,0,0,0,0,18,18,17,,,,,,,,,,,space,2.3060144239570946,,,,,,,,,,,9,001,2,2018_Oct_04_1232,VocabTraining,59.36547368868117,
la carpeta?,vaciar,maratón,maleta,carpeta,folder,semicolon,None,la carpeta,carpeta,1,1,0,1,0,0,0,0,0,0,19,19,19,,,,,,,,,,,space,1.5881890230230056,,,,,,,,,,,9,001,2,2018_Oct_04_1232,VocabTraining,59.36547368868117,
el escenario?,monedas,diamante,sucio,escenario,stage,semicolon,None,el escenario,escenario,1,1,0,1,0,0,0,0,0,0,20,20,20,,,,,,,,,,,space,1.5912326520192437,,,,,,,,,,,9,001,2,2018_Oct_04_1232,VocabTraining,59.36547368868117,
,,,,,,,,,,,1,0,1,0,0,0,0,0,,,,,,,,,,,,,,,,,j,1,2.161360365047585,,,,,,,,9,001,2,2018_Oct_04_1232,VocabTraining,59.36547368868117,
vaciar?,cuaderno,escenario,planos,vaciar,to empty,semicolon,None,vaciar,vaciar,1,1,0,1,0,,,,,,,,,0,0,0,0,0,0,0,15,,,,,,,,space,1.3401272280025296,semicolon,1,2.5448742929729633,,,9,001,2,2018_Oct_04_1232,VocabTraining,59.36547368868117,
saltar la cuerda?,renunciar,saltarlacuerda,maratón,cuaderno,to jump rope,f,None,saltar la cuerda,saltarlacuerda,1,1,0,1,0,,,,,,,,,0,0,0,0,0,1,1,6,,,,,,,,,,f,1,1.4383800870273262,,,9,001,2,2018_Oct_04_1232,VocabTraining,59.36547368868117,
el jardinero?,jardinero,fregadero,aviso,saltarlacuerda,gardener,a,None,el jardinero,jardinero,1,1,0,1,0,,,,,,,,,0,0,0,0,0,2,2,1,,,,,,,,,,a,1,2.242075920046773,,,9,001,2,2018_Oct_04_1232,VocabTraining,59.36547368868117,
el maratón?,maratón,porche,carpeta,librero,marathon,a,None,el maratón,maratón,1,1,0,1,0,,,,,,,,,0,0,0,0,0,3,3,2,,,,,,,,,,a,1,1.0726268670405261,,,9,001,2,2018_Oct_04_1232,VocabTraining,59.36547368868117,
algo sucio?,fregadero,biblia,saltarlacuerda,sucio,dirty,semicolon,None,sucio,sucio,1,1,0,1,0,,,,,,,,,0,0,0,0,0,4,4,16,,,,,,,,,,semicolon,1,2.7490775730111636,,,9,001,2,2018_Oct_04_1232,VocabTraining,59.36547368868117,
los planos?,sucio,planos,jardinero,monedas,"plans, blueprints",f,None,los planos,planos,1,1,0,1,0,,,,,,,,,0,0,0,0,0,5,5,5,,,,,,,,,,f,1,1.2197691499604844,,,9,001,2,2018_Oct_04_1232,VocabTraining,59.36547368868117,
el aviso?,copa,jardinero,abrigo,aviso,warning,semicolon,None,el aviso,aviso,1,1,0,1,0,,,,,,,,,0,0,0,0,0,6,6,18,,,,,,,,,,semicolon,1,1.237630884977989,,,9,001,2,2018_Oct_04_1232,VocabTraining,59.36547368868117,
la copa?,planos,carpeta,copa,biblia,wineglass,j,None,la copa,copa,1,1,0,1,0,,,,,,,,,0,0,0,0,0,7,7,14,,,,,,,,,,j,1,0.9067325930227526,,,9,001,2,2018_Oct_04_1232,VocabTraining,59.36547368868117,
el escenario?,monedas,diamante,sucio,escenario,stage,semicolon,None,el escenario,escenario,1,1,0,1,0,,,,,,,,,0,0,0,0,0,8,8,20,,,,,,,,,,semicolon,1,1.0749032299499959,,,9,001,2,2018_Oct_04_1232,VocabTraining,59.36547368868117,
el diamante?,diamante,copa,escenario,abrigo,diamond,a,None,el diamante,diamante,1,1,0,1,0,,,,,,,,,0,0,0,0,0,9,9,3,,,,,,,,,,a,1,0.9868410449707881,,,9,001,2,2018_Oct_04_1232,VocabTraining,59.36547368868117,
las monedas?,saltarlacuerda,aviso,monedas,escalera,coins,j,None,las monedas,monedas,1,1,0,1,0,,,,,,,,,0,0,0,0,0,10,10,10,,,,,,,,,,j,1,0.7676474830368534,,,9,001,2,2018_Oct_04_1232,VocabTraining,59.36547368868117,
la carpeta?,vaciar,maratón,maleta,carpeta,folder,semicolon,None,la carpeta,carpeta,1,1,0,1,0,,,,,,,,,0,0,0,0,0,11,11,19,,,,,,,,,,semicolon,1,1.6039585200487636,,,9,001,2,2018_Oct_04_1232,VocabTraining,59.36547368868117,
renunciar?,porche,escalera,librero,renunciar,to quit,semicolon,None,renunciar,renunciar,1,1,0,1,0,,,,,,,,,0,0,0,0,0,12,12,17,,,,,,,,,,semicolon,1,1.8244348560110666,,,9,001,2,2018_Oct_04_1232,VocabTraining,59.36547368868117,
la maleta?,escenario,maleta,vaciar,copa,suitcase,f,None,la maleta,maleta,1,1,0,1,0,,,,,,,,,0,0,0,0,0,13,13,9,,,,,,,,,,f,1,0.9718688389984891,,,9,001,2,2018_Oct_04_1232,VocabTraining,59.36547368868117,
el abrigo?,carpeta,abrigo,biblia,porche,coat,f,None,el abrigo,abrigo,1,1,0,1,0,,,,,,,,,0,0,0,0,0,14,14,8,,,,,,,,,,f,1,0.808013639994897,,,9,001,2,2018_Oct_04_1232,VocabTraining,59.36547368868117,
el fregadero?,abrigo,renunciar,fregadero,maratón,kitchen sink,j,None,el fregadero,fregadero,1,1,0,1,0,,,,,,,,,0,0,0,0,0,15,15,12,,,,,,,,,,j,1,2.29269229399506,,,9,001,2,2018_Oct_04_1232,VocabTraining,59.36547368868117,
el porche?,maleta,monedas,porche,diamante,porch,j,None,el porche,porche,1,1,0,1,0,,,,,,,,,0,0,0,0,0,16,16,13,,,,,,,,,,j,1,0.8201296780025586,,,9,001,2,2018_Oct_04_1232,VocabTraining,59.36547368868117,
el librero?,aviso,librero,diamante,fregadero,shelf,f,None,el librero,librero,1,1,0,1,0,,,,,,,,,0,0,0,0,0,17,17,7,,,,,,,,,,f,1,1.1213199450285174,,,9,001,2,2018_Oct_04_1232,VocabTraining,59.36547368868117,
el cuaderno?,librero,sucio,cuaderno,jardinero,notebook,j,None,el cuaderno,cuaderno,1,1,0,1,0,,,,,,,,,0,0,0,0,0,18,18,11,,,,,,,,,,j,1,1.1207304259878583,,,9,001,2,2018_Oct_04_1232,VocabTraining,59.36547368868117,
la escalera?,escalera,cuaderno,renunciar,planos,staircase,a,None,la escalera,escalera,1,1,0,1,0,,,,,,,,,0,0,0,0,0,19,19,0,,,,,,,,,,a,1,0.8905087020248175,,,9,001,2,2018_Oct_04_1232,VocabTraining,59.36547368868117,
la biblia?,biblia,vaciar,escalera,maleta,bible,a,None,la biblia,biblia,1,1,0,1,0,,,,,,,,,0,0,0,0,0,20,20,4,,,,,,,,,,a,1,0.9241789149818942,,,9,001,2,2018_Oct_04_1232,VocabTraining,59.36547368868117,
,,,,,,,,,,,1,0,1,0,,,,,,,,,0,0,0,0,,,,,,,,,,,,,,,,,,,9,001,2,2018_Oct_04_1232,VocabTraining,59.36547368868117,
,,,,,,,,,,,1,0,1,0,,,,,,,,,,,,,,,,,,,,,,,,,,,,,None,,9,001,2,2018_Oct_04_1232,VocabTraining,59.36547368868117,
